accelerometerX,accelerometerY,accelerometerZ,gyroscopeX,gyroscopeY,gyroscopeZ,deviceID
1881,-773,215,27,-12,15,10003
1886,-767,214,36,-5,23,10003
1876,-768,209,35,-4,18,10003
1879,-767,209,38,-3,23,10003
1878,-765,221,17,-12,26,10003
1869,-762,209,25,5,22,10003
1883,-753,220,12,-6,27,10003
1878,-766,205,20,-5,25,10003
1879,-758,214,14,-7,22,10003
1882,-761,209,23,2,30,10003
1884,-759,203,18,-5,16,10003
1885,-757,221,8,-6,14,10003
1884,-753,206,12,-16,16,10003
1886,-763,215,8,-3,12,10003
1876,-764,216,10,-7,16,10003
1878,-762,219,-3,-10,14,10003
1887,-758,204,8,4,11,10003
1882,-756,205,2,-7,16,10003
1873,-770,219,2,-4,19,10003
1871,-770,215,7,-11,31,10003
1877,-762,221,11,-7,24,10003
1881,-758,210,7,-12,34,10003
1880,-762,216,6,0,33,10003
1883,-764,217,6,-13,31,10003
1878,-766,215,5,-8,20,10003
1877,-763,212,10,-7,28,10003
1872,-760,219,17,-12,35,10003
1873,-763,204,12,-15,26,10003
1876,-762,220,5,-18,31,10003
1872,-763,210,16,-6,30,10003
1885,-763,203,7,-10,30,10003
1880,-759,222,7,-6,30,10003
1886,-764,215,4,-12,26,10003
1890,-766,217,5,-2,21,10003
1890,-768,211,7,-14,21,10003
1888,-762,205,13,-22,25,10003
1884,-760,221,28,-16,5,10003
1884,-768,206,23,-11,0,10003
1880,-772,218,23,-14,-4,10003
1878,-777,223,32,-12,2,10003
1870,-763,220,39,-23,-1,10003
1866,-766,221,42,-16,-2,10003
1865,-772,229,34,-8,-7,10003
1865,-773,223,46,-19,1,10003
1871,-776,213,52,-25,9,10003
1873,-777,218,60,-26,5,10003
1883,-775,209,61,-23,15,10003
1882,-766,205,69,-32,2,10003
1875,-766,222,65,-25,13,10003
1879,-772,215,59,-22,15,10003
1871,-765,216,66,-24,10,10003
1875,-761,221,60,-32,8,10003
1883,-763,218,59,-33,8,10003
1885,-767,223,70,-26,10,10003
1882,-757,225,64,-30,12,10003
1879,-762,217,63,-33,9,10003
1874,-762,222,71,-35,4,10003
1876,-753,222,74,-37,7,10003
1882,-757,214,71,-34,5,10003
1876,-754,205,80,-36,1,10003
1885,-755,213,61,-29,-1,10003
1876,-758,214,58,-27,-15,10003
1867,-759,217,63,-22,-14,10003
1877,-759,216,49,-30,0,10003
1873,-756,217,46,-20,-17,10003
1874,-749,207,35,-27,-11,10003
1879,-759,195,39,-25,-2,10003
1879,-767,215,25,-29,-1,10003
1880,-758,217,39,-29,0,10003
1876,-755,217,27,-33,5,10003
1879,-761,204,23,-26,3,10003
1889,-762,216,21,-30,0,10003
1883,-762,206,31,-19,3,10003
1883,-758,213,29,-26,8,10003
1886,-757,219,17,-24,0,10003
1883,-765,215,19,-24,-8,10003
1885,-760,231,19,-12,-8,10003
1892,-763,226,21,-15,-3,10003
1900,-760,219,10,-18,-3,10003
1887,-760,215,26,0,-9,10003
1890,-751,220,16,-20,-12,10003
1889,-758,216,23,-14,-10,10003
1886,-750,216,6,-6,-10,10003
1884,-749,217,7,-7,-2,10003
1882,-751,219,3,-10,-5,10003
1894,-754,217,7,-5,-3,10003
1880,-756,230,10,-17,-4,10003
1886,-750,220,4,-10,-6,10003
1876,-758,221,6,-11,7,10003
1881,-760,231,6,-4,4,10003
1882,-757,210,2,-5,-4,10003
1877,-757,201,-3,-6,9,10003
1872,-756,216,13,-13,17,10003
1871,-754,209,24,-12,9,10003
1878,-751,216,16,-13,15,10003
1869,-732,213,8,-13,18,10003
1868,-755,208,-5,-14,8,10003
1873,-750,220,-13,-9,15,10003
1878,-749,211,-10,-17,-5,10003
1883,-747,207,-22,-25,-4,10003
1889,-751,201,-25,-15,3,10003
1889,-767,215,-39,-8,-9,10003
1889,-759,211,-35,-23,0,10003
1898,-764,206,-20,-18,-7,10003
1891,-767,212,-18,-21,-6,10003
1882,-768,220,2,-20,10,10003
1877,-760,216,11,-12,-2,10003
1880,-761,230,14,-20,-1,10003
1873,-765,232,19,-18,18,10003
1877,-752,225,17,-25,10,10003
1883,-754,233,19,-15,19,10003
1869,-749,216,19,-21,6,10003
1875,-741,219,11,-8,10,10003
1882,-744,215,12,-15,10,10003
1878,-750,225,9,-10,9,10003
1877,-754,213,12,-20,14,10003
1883,-753,214,5,-22,7,10003
1888,-754,215,16,-19,7,10003
1884,-756,204,7,-21,23,10003
1894,-750,208,13,-26,17,10003
1889,-748,215,10,-18,22,10003
1881,-752,228,7,-26,23,10003
1883,-747,209,0,-10,19,10003
1878,-744,204,-17,-12,21,10003
1880,-740,210,-19,-9,20,10003
1881,-736,219,-22,-11,17,10003
1888,-734,212,-29,-16,20,10003
1887,-736,215,-28,-19,18,10003
1894,-729,218,-42,-13,5,10003
1889,-750,212,-51,-4,21,10003
1884,-750,231,-54,-16,7,10003
1884,-747,224,-48,-11,6,10003
1886,-744,216,-56,-10,17,10003
1885,-747,209,-46,-13,16,10003
1891,-749,207,-60,-7,22,10003
1887,-752,213,-56,-5,15,10003
1897,-756,209,-62,-5,7,10003
1887,-748,206,-63,2,14,10003
1884,-746,222,-68,-7,15,10003
1889,-749,226,-64,7,11,10003
1877,-752,211,-68,-2,18,10003
1877,-755,225,-63,-2,15,10003
1881,-762,207,-64,0,23,10003
1886,-752,200,-70,10,14,10003
1873,-754,203,-66,-7,19,10003
1885,-753,211,-64,8,13,10003
1881,-758,217,-55,1,24,10003
1893,-747,202,-58,5,16,10003
1893,-756,210,-52,4,7,10003
1889,-751,221,-51,3,17,10003
1882,-754,207,-53,-1,20,10003
1889,-751,216,-54,4,14,10003
1883,-747,210,-51,5,9,10003
1888,-757,208,-51,7,11,10003
1885,-748,208,-58,3,16,10003
1888,-749,207,-52,5,14,10003
1889,-747,212,-64,2,10,10003
1895,-751,204,-68,4,15,10003
1880,-745,204,-67,-3,22,10003
1888,-742,204,-68,2,13,10003
1876,-752,206,-71,2,18,10003
1885,-755,218,-69,4,9,10003
1881,-745,207,-77,3,13,10003
1886,-747,206,-70,0,12,10003
1880,-750,217,-79,-1,9,10003
1891,-758,209,-68,0,16,10003
1888,-757,221,-67,3,10,10003
1889,-754,202,-66,4,7,10003
1888,-762,204,-74,0,12,10003
1885,-764,206,-63,-1,8,10003
1885,-761,227,-67,-5,5,10003
1888,-756,210,-58,-7,-2,10003
1893,-763,209,-52,1,0,10003
1897,-764,219,-46,3,-11,10003
1880,-760,205,-47,1,0,10003
1876,-763,212,-47,-6,4,10003
1885,-763,218,-39,-1,6,10003
1873,-750,204,-44,0,8,10003
1878,-748,212,-44,-4,12,10003
1876,-758,211,-40,-6,15,10003
1876,-748,221,-47,-8,-1,10003
1881,-753,201,-38,-8,12,10003
1873,-759,202,-46,4,17,10003
1882,-761,214,-46,-10,11,10003
1892,-760,195,-40,-17,8,10003
1884,-755,210,-33,-12,2,10003
1886,-758,207,-33,-14,14,10003
1887,-756,198,-37,-12,15,10003
1882,-756,211,-30,-6,13,10003
1874,-753,219,-24,-13,15,10003
1872,-743,205,-24,-5,15,10003
1882,-757,191,-14,-19,16,10003
1878,-749,221,-18,-25,17,10003
1879,-752,201,-13,-16,18,10003
1884,-755,198,-23,-14,14,10003
1893,-749,207,-12,-10,7,10003
1886,-744,215,-17,-9,21,10003
1880,-756,203,-22,-7,6,10003
1883,-756,200,-27,-13,8,10003
1875,-750,201,-27,-12,14,10003
1889,-747,213,-20,-16,7,10003
1883,-746,212,-29,-19,7,10003
1886,-753,197,-24,-10,1,10003
1889,-758,208,-30,-9,17,10003
1876,-752,201,-18,-11,22,10003
1889,-754,198,-25,0,14,10003
1887,-739,210,-21,3,25,10003
1884,-746,192,-38,-4,26,10003
1879,-754,198,-32,-15,24,10003
1888,-747,199,-42,-10,25,10003
1886,-741,196,-35,-4,21,10003
1889,-747,205,-43,-5,24,10003
1889,-749,200,-44,-7,16,10003
1891,-746,201,-45,4,19,10003
1897,-750,203,-48,-1,16,10003
1881,-747,198,-46,1,17,10003
1889,-747,224,-60,-3,16,10003
1891,-755,214,-51,7,11,10003
1887,-755,196,-53,5,21,10003
1880,-754,200,-49,5,24,10003
1884,-759,205,-48,2,15,10003
1877,-751,210,-44,1,15,10003
1884,-751,197,-47,4,24,10003
1889,-751,207,-55,5,26,10003
1885,-752,200,-53,3,15,10003
1896,-742,203,-54,2,27,10003
1882,-754,207,-50,12,15,10003
1898,-756,201,-55,9,11,10003
1889,-750,208,-47,4,19,10003
1886,-759,208,-53,11,17,10003
1887,-752,199,-46,5,8,10003
1876,-753,201,-39,7,10,10003
1882,-756,202,-39,10,14,10003
1892,-758,194,-37,10,12,10003
1884,-751,212,-38,14,15,10003
1876,-758,201,-36,2,9,10003
1889,-763,224,-38,5,12,10003
1890,-757,198,-29,9,11,10003
1892,-759,213,-25,4,11,10003
1889,-767,214,-15,8,6,10003
1887,-759,213,-5,6,-10,10003
1885,-759,220,5,7,-8,10003
1888,-760,218,17,10,-12,10003
1883,-769,203,21,14,-10,10003
1883,-760,210,33,-5,2,10003
1880,-749,207,31,-1,-1,10003
1887,-756,208,28,8,3,10003
1877,-771,217,35,7,0,10003
1869,-769,203,43,-1,7,10003
1878,-757,207,47,11,7,10003
1883,-761,199,51,8,21,10003
1893,-755,211,51,4,4,10003
1900,-761,207,48,12,4,10003
1898,-773,198,60,18,12,10003
1897,-759,213,63,21,19,10003
1882,-744,210,56,25,34,10003
1876,-749,211,50,19,38,10003
1872,-733,192,38,21,48,10003
1867,-733,195,28,14,54,10003
1867,-721,192,11,13,62,10003
1879,-718,192,-6,-2,61,10003
1878,-720,187,-38,-2,52,10003
1878,-722,201,-67,-6,39,10003
1881,-732,198,-84,-7,20,10003
1883,-734,209,-107,-6,-2,10003
1875,-748,200,-112,-14,-8,10003
1872,-764,210,-112,-4,-10,10003
1875,-775,227,-97,-7,-2,10003
1873,-787,217,-75,-13,15,10003
1878,-793,227,-42,-20,16,10003
1877,-785,217,-24,-18,29,10003
1879,-774,227,-11,-16,21,10003
1877,-781,219,-3,-22,35,10003
1881,-782,218,10,-27,45,10003
1885,-778,224,17,-27,44,10003
1886,-774,218,35,-12,27,10003
1880,-776,218,46,-13,21,10003
1883,-766,213,55,-16,19,10003
1889,-757,215,69,-16,21,10003
1878,-761,222,58,-11,7,10003
1884,-752,210,64,-16,15,10003
1879,-762,209,54,-12,19,10003
1871,-744,197,63,-14,24,10003
1871,-745,195,58,-20,37,10003
1888,-734,202,42,-25,21,10003
1890,-731,200,45,-28,24,10003
1897,-730,205,33,-29,25,10003
1893,-720,203,19,-30,21,10003
1905,-722,213,6,-24,4,10003
1902,-724,224,-4,-28,3,10003
1906,-730,214,-30,-25,-19,10003
1897,-747,209,-35,-23,-24,10003
1888,-744,223,-40,-22,-32,10003
1884,-751,217,-30,-21,-18,10003
1880,-752,232,-38,-13,-22,10003
1883,-768,232,-32,-20,-11,10003
1877,-766,211,-23,-23,-6,10003
1880,-760,209,-8,-19,-6,10003
1882,-769,203,-9,-17,-4,10003
1880,-763,218,3,-9,1,10003
1883,-759,202,-5,-9,-6,10003
1882,-760,211,-2,-7,-2,10003
1878,-769,224,-10,-6,-14,10003
1877,-761,215,-15,6,-5,10003
1878,-756,210,-17,-3,4,10003
1885,-758,209,-15,-3,13,10003
1877,-753,201,-12,-5,9,10003
1884,-745,203,-17,-7,11,10003
1888,-753,200,-10,-5,8,10003
1890,-744,203,-11,-17,11,10003
1890,-743,212,-9,-10,13,10003
1888,-722,197,-13,-22,2,10003
1896,-736,215,-25,-19,7,10003
1888,-742,209,-35,-18,-1,10003
1880,-736,212,-39,-13,-1,10003
1886,-739,191,-53,-4,-1,10003
1879,-739,210,-66,-14,-4,10003
1877,-749,201,-77,-3,-6,10003
1884,-744,227,-76,-12,11,10003
1881,-747,207,-71,-7,21,10003
1876,-754,196,-77,-11,20,10003
1887,-757,197,-75,-17,16,10003
1891,-750,212,-76,-5,31,10003
1885,-758,214,-76,-8,25,10003
1883,-753,212,-78,-19,23,10003
1893,-759,199,-75,-6,24,10003
1885,-756,215,-66,-13,18,10003
1873,-754,215,-58,-8,27,10003
1872,-738,202,-63,-12,27,10003
1870,-749,205,-64,-9,16,10003
1877,-754,200,-59,-16,26,10003
1887,-764,216,-43,-13,10,10003
1889,-758,207,-37,-14,11,10003
1890,-757,195,-24,-15,12,10003
1895,-759,208,-26,-13,3,10003
1893,-754,203,-22,-11,14,10003
1893,-755,219,-10,-5,12,10003
1891,-749,209,-14,-12,12,10003
1882,-755,202,-12,-9,3,10003
1883,-755,196,-11,-9,19,10003
1880,-748,197,-8,-13,17,10003
1883,-742,204,-14,-13,20,10003
1888,-740,196,-18,-15,23,10003
1882,-738,208,-27,-11,20,10003
1878,-742,208,-41,-15,21,10003
1885,-743,198,-45,-7,14,10003
1884,-742,203,-61,-13,19,10003
1877,-753,189,-53,-18,11,10003
1883,-759,204,-46,-12,21,10003
1887,-773,199,-42,-10,9,10003
1882,-768,195,-34,-18,14,10003
1882,-774,194,-13,-13,2,10003
1883,-768,207,-9,-27,24,10003
1878,-766,208,1,-15,18,10003
1879,-767,199,6,-19,25,10003
1885,-764,193,18,-18,15,10003
1892,-768,197,35,-25,31,10003
1895,-764,205,34,-21,21,10003
1882,-756,193,46,-23,28,10003
1887,-758,211,51,-21,23,10003
1887,-744,199,54,-25,23,10003
1883,-742,207,45,-21,28,10003
1883,-736,203,41,-17,19,10003
1884,-741,199,29,-17,13,10003
1886,-748,209,25,-18,16,10003
1888,-740,205,19,-17,12,10003
1891,-754,202,9,-15,7,10003
1884,-753,192,9,-16,2,10003
1878,-759,205,16,-12,8,10003
1884,-752,200,28,-19,18,10003
1874,-752,205,26,-16,5,10003
1893,-761,197,25,-17,14,10003
1880,-756,191,19,-22,12,10003
1886,-751,193,26,-11,18,10003
1883,-744,208,14,-12,2,10003
1885,-749,191,20,-16,18,10003
1889,-742,194,6,-12,6,10003
1892,-751,197,-9,-1,7,10003
1889,-757,196,-3,-16,7,10003
1890,-742,209,3,-10,7,10003
1894,-754,194,5,-22,3,10003
1895,-753,208,-2,-7,4,10003
1885,-767,207,10,-12,4,10003
1881,-755,204,7,-19,-5,10003
1881,-749,204,9,-15,3,10003
1886,-742,209,13,-3,8,10003
1875,-747,191,9,-4,3,10003
1879,-746,194,-3,-19,8,10003
1880,-740,203,3,-17,-1,10003
1884,-749,203,-9,-17,7,10003
1886,-753,200,-11,-8,1,10003
1890,-755,202,-11,-14,0,10003
1898,-758,209,-23,-1,20,10003
1889,-754,211,-11,-1,9,10003
1888,-753,189,-9,-3,6,10003
1887,-760,205,1,-7,9,10003
1880,-758,205,6,-1,10,10003
1877,-754,208,17,-8,18,10003
1874,-749,222,22,-7,26,10003
1882,-756,205,22,-11,18,10003
1879,-746,203,25,-14,22,10003
1874,-742,198,17,-11,15,10003
1882,-745,205,26,-14,13,10003
1887,-747,198,24,-4,14,10003
1894,-732,201,10,-18,14,10003
1896,-754,203,1,-19,0,10003
1885,-746,198,9,-18,1,10003
1891,-755,207,10,-11,6,10003
1892,-750,215,12,-17,-4,10003
1881,-741,202,22,-5,0,10003
1883,-751,208,13,-10,4,10003
1882,-754,202,19,-7,4,10003
1880,-746,207,19,-9,18,10003
1894,-742,197,9,-4,17,10003
1887,-744,197,8,-2,23,10003
1891,-747,216,10,-4,12,10003
1877,-743,202,5,-2,24,10003
1888,-742,208,9,-4,17,10003
1887,-745,199,8,-6,17,10003
1889,-739,201,-2,-15,9,10003
1880,-752,205,3,-7,12,10003
1883,-743,212,13,-5,13,10003
1881,-752,202,13,-8,16,10003
1883,-742,206,1,2,9,10003
1887,-756,201,2,3,13,10003
1889,-757,208,15,-6,8,10003
1886,-757,190,14,1,8,10003
1887,-749,198,12,-10,12,10003
1892,-744,204,14,0,17,10003
1891,-749,206,22,-6,14,10003
1895,-752,214,10,-10,19,10003
1889,-741,215,8,-9,6,10003
1886,-737,210,7,-7,12,10003
1884,-748,209,8,-4,11,10003
1880,-742,212,3,-3,15,10003
1879,-746,204,-1,1,24,10003
1876,-746,211,1,-1,21,10003
1886,-743,204,-4,0,21,10003
1899,-736,206,5,-4,21,10003
1892,-732,199,-13,2,17,10003
1895,-739,221,-8,4,16,10003
1885,-730,210,-23,2,18,10003
1887,-736,206,-26,-5,25,10003
1896,-733,198,-39,10,13,10003
1890,-738,205,-47,4,28,10003
1893,-744,201,-44,15,8,10003
1885,-744,208,-42,-3,4,10003
1895,-751,196,-36,3,9,10003
1895,-750,229,-49,6,-5,10003
1886,-753,205,-31,-2,-10,10003
1889,-764,211,-24,7,-6,10003
1877,-751,197,-17,-3,5,10003
1871,-759,218,-9,-2,-8,10003
1875,-764,202,5,0,-3,10003
1882,-759,205,11,2,4,10003
1881,-759,203,20,0,7,10003
1883,-747,211,10,-7,14,10003
1883,-753,203,11,-6,25,10003
1884,-745,210,4,8,17,10003
1892,-744,202,9,11,21,10003
1894,-742,206,3,-3,19,10003
1890,-744,214,-2,3,12,10003
1887,-745,210,-3,5,17,10003
1890,-738,205,-4,5,4,10003
1899,-741,207,-1,-2,22,10003
1894,-727,206,-2,4,20,10003
1890,-734,203,-1,-3,26,10003
1878,-729,205,-9,-6,23,10003
1891,-738,215,-7,9,20,10003
1890,-732,206,-18,0,9,10003
1890,-744,219,-14,-4,18,10003
1888,-736,209,-19,-5,8,10003
1888,-732,210,-22,0,10,10003
1893,-745,207,-38,2,8,10003
1888,-751,202,-36,9,9,10003
1885,-759,204,-27,2,15,10003
1885,-752,205,-20,8,13,10003
1885,-752,207,-24,4,31,10003
1874,-751,203,-19,9,17,10003
1886,-756,210,-21,4,36,10003
1876,-737,213,-29,9,36,10003
1881,-743,198,-29,5,26,10003
1889,-740,194,-26,1,27,10003
1882,-746,216,-31,4,29,10003
1886,-748,206,-47,23,25,10003
1879,-749,195,-46,8,12,10003
1881,-753,200,-44,13,20,10003
1885,-745,209,-35,6,33,10003
1881,-759,212,-29,6,37,10003
1893,-755,213,-20,6,23,10003
1889,-753,218,-26,7,27,10003
1888,-743,212,-13,8,34,10003
1891,-743,205,-23,6,27,10003
1886,-740,216,-30,13,25,10003
1892,-738,218,-37,15,27,10003
1895,-751,205,-45,15,24,10003
1894,-743,204,-42,15,18,10003
1884,-743,221,-54,21,16,10003
1891,-738,217,-46,17,23,10003
1883,-747,219,-62,17,19,10003
1885,-748,211,-56,14,22,10003
1883,-746,201,-50,16,21,10003
1882,-749,207,-48,18,15,10003
1882,-745,208,-48,19,18,10003
1896,-741,214,-52,16,24,10003
1872,-750,214,-52,9,24,10003
1876,-739,215,-51,5,22,10003
1883,-745,210,-49,12,22,10003
1879,-743,215,-66,13,22,10003
1878,-748,215,-69,16,13,10003
1884,-752,218,-69,17,15,10003
1879,-752,218,-74,16,11,10003
1886,-754,223,-72,11,13,10003
1892,-754,213,-66,12,15,10003
1889,-755,212,-65,8,23,10003
1883,-753,211,-49,4,8,10003
1893,-765,226,-55,10,18,10003
1878,-759,215,-34,8,13,10003
1885,-763,224,-32,12,6,10003
1883,-762,219,-34,8,12,10003
1880,-766,214,-21,4,14,10003
1865,-753,220,-16,-3,9,10003
1871,-760,212,-13,-2,0,10003
1867,-758,211,-22,-8,10,10003
1868,-763,214,-18,-5,16,10003
1873,-761,203,-16,-11,13,10003
1886,-759,206,-9,-10,18,10003
1893,-754,208,-14,-8,13,10003
1895,-756,210,-17,-9,20,10003
1898,-764,212,-20,-9,18,10003
1907,-754,202,-15,-7,11,10003
1888,-741,210,-14,-11,-3,10003
1890,-740,206,-23,-5,7,10003
1887,-736,220,-20,-5,3,10003
1888,-736,213,-20,-16,1,10003
1885,-734,222,-16,-14,-6,10003
1889,-734,215,-21,-15,-15,10003
1890,-749,218,-9,-8,-15,10003
1889,-746,226,-2,-5,-22,10003
1887,-754,221,12,4,-29,10003
1879,-753,220,20,5,-43,10003
1881,-763,223,33,5,-18,10003
1879,-751,208,40,5,-23,10003
1892,-764,207,45,10,-12,10003
1885,-755,209,47,2,0,10003
1885,-742,189,55,-3,-1,10003
1896,-738,208,61,-6,7,10003
1894,-725,214,40,-1,2,10003
1898,-729,203,33,7,4,10003
1894,-727,215,15,-4,-3,10003
1896,-720,205,11,10,-25,10003
1903,-721,211,2,19,-33,10003
1888,-718,221,-20,10,-29,10003
1884,-721,206,-27,18,-23,10003
1887,-733,217,-35,23,-22,10003
1881,-742,199,-39,22,-20,10003
1889,-736,214,-36,27,-17,10003
1887,-735,214,-35,28,3,10003
1878,-738,215,-34,23,3,10003
1886,-738,215,-44,18,2,10003
1880,-736,222,-54,21,19,10003
1882,-739,221,-64,18,19,10003
1890,-737,219,-67,26,24,10003
1896,-739,212,-61,19,13,10003
1888,-743,200,-74,19,5,10003
1893,-744,201,-69,20,16,10003
1886,-739,208,-73,32,4,10003
1872,-749,214,-65,13,7,10003
1869,-744,216,-64,10,1,10003
1881,-756,232,-66,15,13,10003
1886,-749,214,-60,6,17,10003
1880,-753,225,-50,11,13,10003
1885,-744,212,-44,0,16,10003
1886,-750,220,-35,7,18,10003
1892,-756,224,-17,11,15,10003
1882,-747,228,-12,5,20,10003
1884,-745,226,-14,10,19,10003
1879,-742,236,-15,-3,14,10003
1882,-743,214,-22,5,31,10003
1878,-732,217,-23,-6,18,10003
1876,-737,215,-18,-4,21,10003
1879,-746,211,-25,-6,20,10003
1881,-746,210,-27,-2,22,10003
1884,-748,218,-15,-2,20,10003
1895,-747,216,-4,-11,0,10003
1889,-752,217,2,-6,17,10003
1898,-751,214,9,-15,8,10003
1892,-751,219,26,-3,7,10003
1883,-755,218,29,-14,3,10003
1885,-748,207,43,-5,1,10003
1874,-731,225,38,-10,3,10003
1879,-727,220,18,-7,8,10003
1878,-737,219,3,-7,11,10003
1887,-731,215,4,-9,11,10003
1885,-717,215,-6,-10,8,10003
1895,-716,222,-15,-8,10,10003
1896,-749,221,-25,-7,20,10003
1909,-759,213,-5,-8,13,10003
1897,-736,219,16,1,21,10003
1898,-721,217,8,-1,16,10003
1903,-728,216,-2,8,24,10003
1894,-739,218,-5,5,13,10003
1893,-731,229,-4,10,26,10003
1886,-710,220,0,-6,27,10003
1876,-711,225,-22,0,36,10003
1884,-715,218,-43,-1,34,10003
1886,-724,221,-49,2,31,10003
1898,-731,222,-41,1,30,10003
1899,-721,213,-59,1,16,10003
1890,-734,219,-72,2,12,10003
1898,-733,216,-76,5,1,10003
1900,-747,230,-71,-2,-10,10003
1897,-754,227,-65,11,-15,10003
1895,-763,222,-51,7,-13,10003
1883,-768,231,-44,13,-10,10003
1880,-773,207,-28,9,-5,10003
1882,-775,221,-2,6,-2,10003
1886,-763,227,27,-2,5,10003
1885,-764,233,45,-1,14,10003
1891,-752,217,65,1,17,10003
1883,-745,229,65,4,18,10003
1888,-742,225,77,-8,13,10003
1893,-740,217,71,2,13,10003
1897,-722,223,61,-3,12,10003
1889,-726,215,54,-2,12,10003
1895,-727,225,33,4,15,10003
1893,-728,223,27,5,4,10003
1889,-725,220,27,4,6,10003
1880,-735,230,26,5,5,10003
1897,-727,224,22,7,0,10003
1887,-722,219,7,8,-1,10003
1892,-729,224,7,4,9,10003
1897,-740,210,1,6,19,10003
1889,-735,208,3,7,16,10003
1883,-727,207,-4,9,23,10003
1885,-731,217,0,8,24,10003
1887,-729,223,-11,12,24,10003
1874,-728,217,-31,-2,22,10003
1877,-741,232,-31,2,9,10003
1887,-747,215,-41,5,14,10003
1870,-742,219,-27,10,29,10003
1875,-734,221,-30,4,21,10003
1880,-746,222,-22,15,15,10003
1880,-751,234,-34,8,20,10003
1875,-752,218,-15,6,30,10003
1882,-737,225,-5,0,26,10003
1886,-738,214,-7,-2,40,10003
1883,-748,221,-7,6,39,10003
1877,-747,235,-2,0,36,10003
1885,-738,229,2,-3,41,10003
1877,-735,232,-17,-1,40,10003
1894,-736,228,-24,10,44,10003
1893,-743,214,-26,3,30,10003
1889,-745,232,-20,15,40,10003
1896,-753,244,-7,14,42,10003
1885,-748,234,-9,8,36,10003
1887,-738,224,4,10,44,10003
1888,-739,223,2,15,52,10003
1894,-737,217,7,13,50,10003
1880,-736,221,-11,7,59,10003
1881,-729,218,-24,12,51,10003
1894,-729,217,-36,13,62,10003
1894,-729,213,-39,5,54,10003
1898,-735,217,-54,2,37,10003
1888,-731,221,-50,-6,32,10003
1891,-741,207,-68,2,35,10003
1892,-736,220,-68,-12,28,10003
1890,-750,232,-65,-7,21,10003
1883,-763,240,-52,-6,23,10003
1882,-771,235,-43,-8,15,10003
1895,-772,248,-22,-10,19,10003
1883,-771,240,9,-9,18,10003
1885,-771,236,32,-14,22,10003
1880,-772,247,55,-15,26,10003
1886,-757,233,69,-15,28,10003
1886,-762,242,91,-18,29,10003
1894,-752,235,96,-14,22,10003
1900,-743,231,101,-7,19,10003
1895,-749,238,94,-15,13,10003
1894,-739,245,89,-2,6,10003
1892,-740,235,77,-10,4,10003
1891,-736,228,67,-5,11,10003
1889,-748,211,69,2,2,10003
1884,-738,215,62,-4,1,10003
1887,-743,226,66,-7,2,10003
1876,-737,221,59,-7,14,10003
1870,-739,228,67,1,6,10003
1865,-743,227,57,-9,14,10003
1882,-723,225,51,8,-14,10003
1873,-737,233,38,-6,8,10003
1881,-752,223,27,-3,1,10003
1893,-733,225,1,2,-6,10003
1878,-734,221,-3,-4,-2,10003
1879,-747,235,-2,-3,10,10003
1890,-755,237,-15,-4,17,10003
1889,-744,212,-11,0,19,10003
1892,-743,228,-14,-11,24,10003
1890,-746,234,-4,-7,28,10003
1897,-728,231,-5,-4,35,10003
1896,-740,228,-11,1,40,10003
1894,-739,238,-19,1,28,10003
1892,-730,244,-26,7,33,10003
1889,-731,231,-33,0,39,10003
1878,-728,232,-37,1,32,10003
1877,-736,225,-36,3,36,10003
1883,-737,239,-39,6,31,10003
1882,-746,235,-37,-5,30,10003
1885,-745,236,-36,-5,12,10003
1886,-744,247,-36,-6,12,10003
1885,-756,233,-31,-1,16,10003
1895,-764,230,-26,8,10,10003
1889,-762,228,-23,12,21,10003
1884,-761,234,-17,15,16,10003
1880,-759,224,-10,13,13,10003
1884,-761,238,0,9,23,10003
1885,-765,234,-6,-1,32,10003
1880,-750,231,11,-4,25,10003
1884,-739,230,13,-1,25,10003
1877,-736,240,6,5,23,10003
1890,-742,244,2,-5,26,10003
1893,-740,241,-1,-7,23,10003
1895,-747,226,-3,-5,13,10003
1898,-740,234,-3,3,11,10003
1894,-750,242,-2,10,-3,10003
1887,-745,237,-3,7,6,10003
1887,-744,234,4,4,2,10003
1881,-747,249,6,14,10,10003
1881,-744,235,12,0,13,10003
1878,-751,238,8,-8,14,10003
1881,-745,233,5,-1,15,10003
1882,-748,240,10,6,29,10003
1873,-742,227,-7,3,26,10003
1876,-744,228,-14,2,14,10003
1883,-738,235,-18,5,13,10003
1889,-746,234,-22,1,8,10003
1895,-740,230,-31,0,8,10003
1894,-745,233,-28,6,-4,10003
1887,-751,225,-18,-9,0,10003
1894,-756,253,-18,-5,0,10003
1886,-756,238,-17,0,3,10003
1872,-742,248,1,-6,10,10003
1880,-745,245,1,-6,7,10003
1877,-742,239,7,-7,17,10003
1876,-735,235,15,-5,7,10003
1877,-728,241,20,-7,-3,10003
1889,-735,245,9,-9,1,10003
1894,-732,254,11,-10,-1,10003
1887,-731,233,1,5,-2,10003
1895,-739,225,-1,2,-4,10003
1889,-743,244,2,2,-7,10003
1888,-746,240,4,-7,-5,10003
1881,-744,230,1,1,5,10003
1881,-749,226,-6,-6,6,10003
1880,-750,252,-6,-6,3,10003
1881,-747,232,-6,-7,20,10003
1882,-744,232,-2,-9,19,10003
1891,-751,229,-1,-18,11,10003
1884,-742,237,-7,-6,12,10003
1883,-744,229,-15,-9,3,10003
1884,-746,236,-17,-8,1,10003
1881,-746,236,-15,-8,-10,10003
1890,-753,250,-19,-9,-4,10003
1887,-753,232,-13,-7,1,10003
1881,-754,238,-5,-1,-7,10003
1885,-750,240,-4,-6,6,10003
1878,-748,247,-2,-6,5,10003
1886,-747,237,2,-5,14,10003
1882,-744,242,5,-5,14,10003
1881,-743,236,12,-2,5,10003
1894,-735,240,6,-4,9,10003
1881,-736,232,5,3,11,10003
1889,-733,243,-12,-10,7,10003
1884,-724,241,-21,-5,6,10003
1891,-734,243,-17,-5,-6,10003
1886,-742,231,-33,-5,-8,10003
1894,-729,250,-21,10,4,10003
1889,-745,235,-29,0,3,10003
1885,-748,246,-25,1,1,10003
1888,-745,233,-32,3,0,10003
1893,-751,238,-26,-1,-2,10003
1880,-749,228,-30,3,15,10003
1884,-747,245,-25,5,10,10003
1880,-743,233,-32,5,14,10003
1871,-745,241,-35,0,19,10003
1871,-743,228,-35,-1,19,10003
1877,-744,238,-34,-2,30,10003
1887,-745,234,-37,8,18,10003
1883,-730,228,-45,5,26,10003
1894,-730,228,-43,0,31,10003
1891,-744,223,-48,-5,22,10003
1895,-747,239,-55,-6,22,10003
1893,-743,230,-43,-15,7,10003
1893,-733,240,-37,-13,9,10003
1890,-745,246,-46,-21,10,10003
1889,-734,249,-35,-6,-7,10003
1881,-752,254,-35,-6,-4,10003
1883,-743,248,-39,-12,-4,10003
1888,-739,239,-33,-6,5,10003
1875,-743,253,-31,-8,0,10003
1880,-741,234,-30,-13,7,10003
1890,-749,241,-22,-9,14,10003
1886,-747,244,-18,-17,13,10003
1885,-744,241,-10,-14,7,10003
1892,-744,249,-3,-18,2,10003
1884,-739,235,-3,-22,9,10003
1879,-747,249,3,-20,8,10003
1882,-747,235,4,-20,5,10003
1882,-761,236,5,-18,6,10003
1872,-744,235,6,-18,2,10003
1874,-752,245,14,-19,11,10003
1874,-745,255,19,-21,23,10003
1884,-748,239,30,-28,18,10003
1890,-745,237,45,-19,16,10003
1889,-743,241,47,-18,25,10003
1895,-737,235,43,-17,13,10003
1896,-734,240,31,-21,17,10003
1887,-728,243,35,-21,-2,10003
1886,-745,242,19,-16,8,10003
1888,-732,242,25,-18,1,10003
1884,-734,219,6,-12,2,10003
1887,-735,220,13,-18,-3,10003
1885,-744,242,3,-15,8,10003
1884,-737,247,6,-15,15,10003
1894,-741,233,3,-22,17,10003
1896,-729,232,-4,-13,10,10003
1897,-726,230,-11,-7,21,10003
1899,-733,235,-32,-16,9,10003
1894,-732,227,-40,-9,12,10003
1895,-732,235,-44,-10,12,10003
1896,-741,238,-50,-11,4,10003
1901,-747,238,-62,-6,12,10003
1889,-747,237,-48,-1,10,10003
1889,-757,232,-44,-2,7,10003
1890,-748,232,-36,1,17,10003
1883,-749,244,-25,-8,17,10003
1880,-748,230,-16,-6,13,10003
1884,-742,242,-6,-13,30,10003
1873,-733,223,-5,-7,31,10003
1879,-735,226,-10,-20,29,10003
1874,-734,229,0,-15,22,10003
1884,-732,233,-20,-11,15,10003
1875,-731,213,-25,-16,26,10003
1892,-737,228,-35,-27,17,10003
1880,-730,231,-42,-13,21,10003
1884,-739,229,-34,-18,22,10003
1890,-738,236,-36,-9,22,10003
1896,-740,228,-44,-6,32,10003
1898,-738,237,-38,-10,23,10003
1890,-745,242,-38,-4,24,10003
1895,-739,238,-34,-1,24,10003
1892,-734,246,-34,1,17,10003
1898,-727,249,-34,4,25,10003
1892,-724,252,-32,5,25,10003
1879,-727,243,-39,7,15,10003
1884,-729,255,-38,5,20,10003
1868,-733,252,-35,2,20,10003
1883,-736,233,-24,6,23,10003
1882,-741,226,-22,7,17,10003
1892,-738,240,-15,-1,10,10003
1895,-748,212,-12,8,19,10003
1895,-750,233,-8,-8,6,10003
1899,-746,227,-7,-6,6,10003
1894,-745,223,-18,-6,-2,10003
1892,-746,240,-2,-8,1,10003
1880,-759,240,3,-9,8,10003
1882,-754,242,16,-13,5,10003
1882,-750,242,21,-7,21,10003
1886,-753,249,39,-3,20,10003
1887,-753,270,50,-5,21,10003
1888,-751,245,54,10,19,10003
1889,-753,245,65,5,25,10003
1884,-746,242,67,18,30,10003
1886,-738,236,63,9,41,10003
1874,-741,242,54,4,40,10003
1875,-729,220,48,14,57,10003
1875,-728,229,26,12,61,10003
1880,-721,217,7,-2,64,10003
1878,-723,229,-8,-2,57,10003
1876,-704,222,-14,-15,62,10003
1886,-713,223,-37,-20,50,10003
1891,-707,227,-61,-14,28,10003
1891,-708,231,-91,-26,22,10003
1893,-719,246,-113,-12,13,10003
1897,-729,239,-124,-10,0,10003
1894,-749,244,-120,-1,5,10003
1889,-749,251,-108,-4,-9,10003
1881,-759,250,-109,-9,-5,10003
1884,-764,249,-86,-13,-10,10003
1879,-766,255,-75,-1,-3,10003
1875,-766,251,-64,-8,11,10003
1884,-771,249,-54,-13,20,10003
1876,-763,245,-51,-3,32,10003
1884,-767,247,-34,-5,34,10003
1888,-768,235,-17,-7,33,10003
1887,-749,239,-1,-1,31,10003
1886,-750,238,-7,-4,26,10003
1887,-747,239,0,-5,16,10003
1873,-749,232,-4,-5,15,10003
1882,-746,217,0,-5,12,10003
1883,-739,225,-9,-6,15,10003
1886,-733,237,-14,-6,13,10003
1881,-743,225,-19,-17,5,10003
1885,-741,218,-16,-23,7,10003
1887,-737,222,-26,-20,-1,10003
1885,-750,233,-27,-20,-2,10003
1879,-737,236,-36,-17,-14,10003
1890,-744,241,-43,-26,-2,10003
1887,-741,242,-42,-16,3,10003
1881,-739,214,-49,-22,12,10003
1875,-739,250,-41,-12,1,10003
1895,-744,240,-45,-12,5,10003
1893,-736,229,-41,-13,9,10003
1884,-738,228,-47,-16,11,10003
1887,-740,230,-44,-14,10,10003
1883,-744,233,-45,-13,-4,10003
1878,-747,227,-40,-5,2,10003
1881,-749,226,-45,-16,16,10003
1886,-755,230,-34,-9,1,10003
1872,-747,238,-26,-10,5,10003
1871,-751,216,-28,-20,10,10003
1875,-749,239,-15,-21,17,10003
1874,-749,231,-18,-19,14,10003
1883,-758,227,-15,-18,18,10003
1889,-747,227,-11,-34,16,10003
1891,-735,227,-2,-27,25,10003
1893,-740,222,-24,-15,20,10003
1888,-753,218,-6,-11,12,10003
1887,-742,234,-8,-19,4,10003
1891,-743,235,-2,-8,14,10003
1883,-733,232,6,-18,9,10003
1884,-736,228,0,-22,11,10003
1891,-733,235,0,-22,12,10003
1891,-730,234,4,-17,22,10003
1892,-733,230,11,-14,21,10003
1886,-740,222,8,-15,13,10003
1886,-736,233,10,-15,15,10003
1886,-725,233,0,-15,14,10003
1895,-733,234,-14,-11,20,10003
1893,-733,222,-24,-10,19,10003
1895,-727,219,-25,-15,20,10003
1894,-725,218,-42,-9,23,10003
1890,-740,226,-41,-2,13,10003
1884,-736,229,-46,-9,12,10003
1888,-741,231,-52,4,16,10003
1891,-742,226,-42,-1,14,10003
1895,-750,235,-31,-6,19,10003
1890,-749,248,-23,-14,12,10003
1876,-744,230,-11,-11,15,10003
1883,-742,219,-12,-9,22,10003
1887,-745,233,-8,-15,17,10003
1882,-740,246,-3,-9,4,10003
1893,-739,223,4,-13,16,10003
1880,-736,244,6,-8,16,10003
1886,-747,229,11,-6,13,10003
1884,-752,227,13,-3,13,10003
1893,-743,223,29,-9,8,10003
1886,-747,224,32,-5,4,10003
1884,-749,219,37,-9,3,10003
1885,-745,213,37,-15,7,10003
1880,-748,225,38,-19,9,10003
1885,-737,225,41,-5,11,10003
1885,-744,235,38,-10,16,10003
1882,-729,235,24,-4,9,10003
1879,-723,221,12,-4,12,10003
1880,-735,231,4,-3,5,10003
1886,-744,226,3,-4,9,10003
1888,-743,223,-19,-2,7,10003
1884,-742,234,-13,8,6,10003
1888,-751,215,-12,5,-2,10003
1880,-748,236,-6,-3,2,10003
1889,-747,235,1,1,5,10003
1892,-745,226,3,7,-2,10003
1891,-752,251,8,3,15,10003
1882,-738,229,19,-3,13,10003
1880,-739,231,15,-3,20,10003
1889,-741,229,7,-6,5,10003
1890,-744,214,-3,-3,3,10003
1885,-736,236,-1,-6,6,10003
1884,-738,235,-13,0,8,10003
1883,-733,228,-14,-2,14,10003
1888,-728,228,-15,-8,16,10003
1885,-735,223,-25,-8,7,10003
1887,-737,225,-23,-5,14,10003
1879,-741,235,-25,-6,7,10003
1881,-740,227,-27,-13,9,10003
1899,-746,236,-29,-6,15,10003
1891,-745,223,-32,-4,17,10003
1883,-735,242,-28,-3,20,10003
1891,-739,235,-35,-1,23,10003
1882,-731,232,-41,0,21,10003
1887,-738,234,-43,-9,19,10003
1881,-741,238,-44,-9,29,10003
1889,-743,246,-35,-6,17,10003
1888,-746,230,-31,-7,21,10003
1889,-749,243,-38,-10,21,10003
1886,-744,222,-27,-2,12,10003
1899,-746,245,-17,-9,10,10003
1888,-751,241,-12,-11,8,10003
1888,-745,247,-2,-12,5,10003
1880,-750,241,2,-8,5,10003
1886,-741,236,11,-11,2,10003
1889,-746,241,13,-10,7,10003
1891,-744,238,37,-18,-4,10003
1880,-739,240,24,-10,3,10003
1875,-733,239,37,-11,0,10003
1885,-736,241,27,-15,3,10003
1894,-736,244,35,-24,-2,10003
1888,-744,215,32,-19,-7,10003
1896,-738,235,37,-25,0,10003
1897,-742,241,40,-32,3,10003
1898,-738,237,39,-19,3,10003
1887,-738,240,42,-21,8,10003
1887,-740,226,37,-16,3,10003
1884,-741,229,44,-25,-9,10003
1887,-742,234,41,-15,-1,10003
1881,-734,237,42,-22,2,10003
1885,-728,234,43,-21,4,10003
1887,-734,229,47,-19,0,10003
1883,-729,246,39,-24,0,10003
1892,-734,228,40,-10,4,10003
1896,-731,228,39,-17,-8,10003
1898,-734,215,37,-12,-7,10003
1896,-726,229,32,-24,-9,10003
1885,-732,228,25,-16,-17,10003
1892,-731,234,33,-18,-8,10003
1894,-731,219,31,-18,-10,10003
1880,-735,238,27,-19,-3,10003
1882,-748,228,23,-20,-10,10003
1883,-735,252,23,-24,-4,10003
1881,-738,229,25,-24,-3,10003
1887,-739,239,27,-13,-13,10003
1877,-729,243,27,-9,9,10003
1882,-744,234,15,-20,8,10003
1892,-732,227,21,-11,8,10003
1892,-733,231,20,-9,2,10003
1888,-732,228,16,-20,12,10003
1889,-740,229,18,-8,5,10003
1883,-737,226,23,-16,9,10003
1886,-732,231,21,-19,4,10003
1886,-735,232,28,-18,11,10003
1890,-736,250,19,-11,18,10003
1895,-736,230,27,-16,11,10003
1894,-728,226,13,-12,10,10003
1890,-730,228,13,-9,22,10003
1892,-732,232,8,-6,16,10003
1897,-724,225,11,-15,8,10003
1890,-719,230,1,6,14,10003
1893,-721,233,-2,-3,23,10003
1886,-720,215,-16,-11,23,10003
1893,-717,241,-15,1,15,10003
1896,-712,225,-27,8,14,10003
1896,-719,230,-36,-2,19,10003
1893,-725,234,-32,-1,18,10003
1897,-729,219,-44,6,17,10003
1894,-719,234,-42,9,22,10003
1886,-728,235,-56,2,20,10003
1886,-720,239,-52,6,29,10003
1887,-719,216,-63,8,17,10003
1888,-726,234,-69,4,23,10003
1881,-731,228,-76,1,32,10003
1891,-734,227,-73,4,29,10003
1880,-730,229,-78,9,22,10003
1901,-726,228,-76,18,14,10003
1891,-732,242,-82,3,17,10003
1892,-736,236,-83,8,13,10003
1882,-740,240,-66,2,18,10003
1884,-738,240,-63,9,6,10003
1896,-740,245,-44,4,4,10003
1891,-745,241,-37,7,12,10003
1878,-750,233,-36,8,20,10003
1893,-741,236,-24,11,8,10003
1880,-746,239,-20,8,10,10003
1873,-743,247,-20,4,19,10003
1883,-733,225,-8,3,21,10003
1891,-737,238,-14,4,15,10003
1885,-732,238,-20,1,17,10003
1887,-746,241,-9,-6,16,10003
1893,-744,243,-7,9,23,10003
1881,-736,227,-8,-4,14,10003
1893,-730,231,-5,-8,22,10003
1884,-739,222,-6,-2,20,10003
1896,-737,224,3,-10,27,10003
1892,-733,224,1,-9,26,10003
1889,-726,239,2,-12,24,10003
1881,-723,241,-3,-4,15,10003
1893,-727,238,-9,-7,20,10003
1878,-727,233,-13,-3,29,10003
1890,-721,238,-16,-2,26,10003
1889,-729,231,-19,-3,24,10003
1887,-723,230,-23,-6,19,10003
1887,-733,230,-31,-7,18,10003
1891,-743,231,-22,-11,19,10003
1891,-750,231,-28,-1,17,10003
1890,-743,237,-29,-6,18,10003
1886,-746,230,-21,-2,24,10003
1877,-739,232,-24,-3,17,10003
1886,-729,236,-22,-11,26,10003
1886,-745,244,-21,-2,25,10003
1888,-739,235,-16,-9,32,10003
1886,-734,220,-10,-9,22,10003
1892,-721,226,-28,0,28,10003
1893,-733,247,-17,2,22,10003
1894,-733,234,-35,-9,18,10003
1892,-734,242,-34,-1,15,10003
1886,-734,232,-30,-8,16,10003
1893,-737,246,-41,-2,17,10003
1885,-741,228,-40,-2,5,10003
1889,-742,224,-32,-5,7,10003
1886,-743,237,-24,-1,16,10003
1893,-734,235,-23,-10,18,10003
1898,-736,224,-25,3,16,10003
1892,-735,231,-28,-1,21,10003
1888,-733,234,-27,7,13,10003
1890,-738,228,-36,-2,23,10003
1887,-734,227,-47,4,14,10003
1888,-727,239,-39,3,19,10003
1890,-745,244,-33,-1,12,10003
1886,-741,236,-44,-3,8,10003
1882,-739,237,-35,-2,13,10003
1885,-739,237,-33,-3,26,10003
1879,-740,239,-23,1,17,10003
1884,-730,236,-28,-9,9,10003
1886,-737,221,-33,2,10,10003
1892,-742,250,-36,0,14,10003
1886,-743,223,-25,4,10,10003
1899,-742,233,-19,-1,10,10003
1888,-731,231,-31,-2,14,10003
1881,-733,232,-28,0,18,10003
1880,-740,237,-30,-8,14,10003
1881,-732,233,-30,-2,26,10003
1881,-730,229,-37,2,17,10003
1892,-741,229,-35,2,12,10003
1886,-737,221,-29,-1,12,10003
1886,-737,221,-25,-9,4,10003
1884,-744,226,-27,-6,10,10003
1887,-734,228,-14,-6,8,10003
1894,-741,236,-21,-4,6,10003
1888,-737,232,-15,-18,6,10003
1887,-734,241,-16,-7,0,10003
1891,-744,235,-12,-9,5,10003
1883,-736,230,-18,-12,8,10003
1883,-738,232,-16,-12,6,10003
1874,-745,234,-15,-10,27,10003
1885,-739,230,-6,-12,21,10003
1884,-743,229,-5,-9,15,10003
1897,-741,223,-3,-8,22,10003
1891,-745,218,-11,-15,23,10003
1888,-735,218,-12,-11,33,10003
1891,-733,227,-11,-10,23,10003
1891,-737,241,-20,-10,18,10003
1888,-734,230,-12,-11,16,10003
1894,-740,230,-6,-15,21,10003
1884,-735,243,-6,-10,19,10003
1879,-736,233,4,-13,20,10003
1876,-726,232,3,-15,16,10003
1888,-729,231,10,-9,30,10003
1884,-747,232,11,-17,20,10003
1884,-737,223,23,-12,16,10003
1889,-733,241,11,-10,12,10003
1890,-734,217,6,-3,10,10003
1898,-735,216,2,-3,14,10003
1890,-737,233,-6,-10,17,10003
1895,-735,228,-3,3,13,10003
1886,-733,232,-12,0,12,10003
1890,-734,224,-10,3,11,10003
1888,-740,224,-18,0,27,10003
1892,-731,229,-24,2,28,10003
1888,-728,227,-30,-3,24,10003
1882,-727,237,-32,-3,33,10003
1888,-724,248,-36,2,33,10003
1895,-722,242,-36,16,26,10003
1889,-721,227,-52,6,23,10003
1893,-738,224,-43,6,18,10003
1888,-735,229,-51,1,6,10003
1891,-741,235,-46,2,9,10003
1881,-743,241,-38,4,21,10003
1888,-739,240,-39,6,15,10003
1887,-745,224,-35,4,16,10003
1890,-749,236,-39,6,18,10003
1888,-747,243,-26,9,22,10003
1882,-741,228,-22,14,22,10003
1888,-738,244,-21,8,26,10003
1886,-732,235,-20,9,20,10003
1884,-741,234,-25,7,27,10003
1889,-736,239,-24,6,25,10003
1896,-736,231,-34,9,22,10003
1894,-731,232,-34,8,17,10003
1892,-728,225,-34,9,15,10003
1884,-735,236,-44,5,18,10003
1884,-736,230,-39,11,27,10003
1888,-733,226,-42,7,16,10003
1885,-742,232,-44,1,24,10003
1886,-745,231,-39,10,26,10003
1888,-746,227,-48,11,25,10003
1887,-746,232,-39,5,23,10003
1881,-736,235,-31,9,31,10003
1885,-742,228,-34,-4,32,10003
1892,-740,231,-45,0,20,10003
1879,-741,239,-37,14,24,10003
1886,-741,251,-39,4,27,10003
1881,-728,241,-50,17,28,10003
1883,-738,222,-48,-1,19,10003
1890,-743,234,-52,11,18,10003
1892,-749,230,-43,9,24,10003
1882,-742,234,-35,5,20,10003
1892,-741,227,-27,6,14,10003
1893,-743,242,-32,-5,11,10003
1883,-745,248,-18,8,11,10003
1887,-745,224,-22,-4,17,10003
1876,-742,234,-23,5,22,10003
1874,-743,244,-12,1,19,10003
1881,-739,242,-12,10,23,10003
1893,-731,221,-20,-1,9,10003
1897,-734,233,-19,10,21,10003
1889,-740,236,-22,4,6,10003
1891,-741,237,-22,3,8,10003
1896,-744,235,-21,1,10,10003
1892,-743,237,-22,-6,18,10003
1884,-744,240,-21,-5,20,10003
1890,-746,238,-17,-4,13,10003
1891,-747,236,-14,-4,12,10003
1892,-748,238,1,-2,13,10003
1887,-741,239,16,0,15,10003
1882,-742,242,13,-8,10,10003
1889,-736,246,14,1,5,10003
1894,-733,242,10,0,15,10003
1888,-740,245,20,4,10,10003
1888,-741,247,33,-4,15,10003
1904,-746,249,48,-16,27,10003
1912,-756,252,80,-13,42,10003
1919,-767,269,120,-19,53,10003
1920,-779,282,175,-32,75,10003
1939,-796,291,218,-29,122,10003
1963,-795,287,284,-49,173,10003
1965,-812,295,350,-51,249,10003
1983,-799,327,437,-55,337,10003
1983,-815,338,508,-68,432,10003
1993,-871,333,648,-91,539,10003
2040,-806,391,726,-71,677,10003
2039,-806,386,736,-67,835,10003
2046,-800,380,715,-33,951,10003
2044,-808,393,708,-21,1092,10003
2057,-868,395,727,-22,1238,10003
2076,-894,425,792,-6,1373,10003
2102,-885,428,853,19,1505,10003
2131,-897,426,889,40,1647,10003
2134,-934,431,897,79,1793,10003
2139,-1017,449,1055,114,1878,10003
2162,-1020,462,1208,135,2005,10003
2160,-996,454,1373,157,2105,10003
2161,-990,457,1472,208,2195,10003
2183,-1020,470,1562,244,2264,10003
2187,-1061,483,1729,287,2359,10003
2205,-1113,460,1819,327,2458,10003
2187,-1103,431,1937,342,2543,10003
2189,-1119,421,2019,356,2621,10003
2175,-1153,432,2087,364,2692,10003
2155,-1201,416,2188,344,2755,10003
2151,-1268,426,2389,328,2808,10003
2115,-1309,406,2653,278,2840,10003
2090,-1305,422,2927,255,2863,10003
2053,-1345,422,3205,229,2897,10003
2026,-1443,409,3552,206,2918,10003
2002,-1498,429,3978,173,2908,10003
1979,-1475,423,4415,140,2875,10003
1932,-1468,446,4857,131,2802,10003
1875,-1459,462,5235,105,2751,10003
1855,-1460,475,5574,92,2706,10003
1820,-1524,512,5925,80,2667,10003
1768,-1584,519,6335,68,2615,10003
1705,-1584,546,6718,37,2566,10003
1692,-1473,562,7043,25,2496,10003
1637,-1361,565,7189,47,2423,10003
1587,-1260,614,7219,60,2322,10003
1523,-1280,636,7236,79,2291,10003
1462,-1290,670,7288,62,2227,10003
1436,-1227,722,7303,41,2153,10003
1407,-1135,802,7253,24,2092,10003
1331,-986,836,6921,-22,2064,10003
1308,-1009,991,6671,-47,2019,10003
1265,-970,1037,6292,-105,1962,10003
1224,-946,1093,5991,-107,1889,10003
1180,-954,1087,5637,-164,1835,10003
1125,-872,1048,5269,-213,1769,10003
1103,-809,1065,4867,-293,1598,10003
1096,-780,1093,4384,-301,1599,10003
1069,-799,1089,3961,-274,1546,10003
1002,-815,1089,3749,-292,1453,10003
969,-810,1141,3551,-359,1434,10003
1040,-694,1221,3223,-381,1368,10003
1024,-617,1301,2900,-320,1316,10003
963,-753,1290,2662,-319,1335,10003
912,-904,1295,2726,-333,1337,10003
899,-993,1217,2920,-374,1319,10003
869,-873,1199,3132,-457,1274,10003
873,-604,1121,3036,-501,1240,10003
896,-375,1140,2649,-475,1260,10003
880,-294,1202,1828,-435,1333,10003
855,-308,1254,935,-371,1381,10003
819,-567,1254,370,-347,1312,10003
801,-867,1280,417,-331,1224,10003
777,-984,1485,650,-346,1149,10003
859,-714,1524,827,-340,985,10003
907,-492,1451,802,-234,835,10003
912,-435,1369,699,-115,729,10003
879,-527,1348,568,-53,710,10003
819,-588,1304,470,-74,711,10003
800,-406,1266,177,-47,705,10003
805,-487,1294,-246,30,725,10003
799,-550,1298,-509,80,624,10003
753,-450,1293,-758,99,540,10003
744,-378,1259,-1123,89,461,10003
742,-404,1192,-1430,65,409,10003
733,-348,1159,-1736,5,352,10003
723,-447,1208,-2011,-58,355,10003
749,-725,1341,-1933,-141,337,10003
806,-944,1493,-1547,-190,348,10003
868,-1031,1602,-1110,-214,408,10003
945,-1027,1701,-763,-187,472,10003
992,-980,1703,-490,-157,471,10003
1028,-934,1612,-425,-110,525,10003
1042,-854,1538,-517,-95,573,10003
1046,-855,1517,-663,-91,622,10003
1099,-775,1514,-893,-56,679,10003
1189,-611,1543,-1321,6,703,10003
1285,-683,1496,-1825,112,727,10003
1306,-825,1492,-1986,181,596,10003
1345,-841,1452,-2023,201,539,10003
1357,-921,1452,-1913,248,416,10003
1322,-903,1471,-1685,271,293,10003
1287,-922,1519,-1495,329,218,10003
1235,-971,1566,-1313,399,151,10003
1200,-1076,1610,-1105,474,125,10003
1157,-1085,1677,-891,582,74,10003
1123,-1108,1723,-731,707,52,10003
1073,-1159,1678,-550,820,24,10003
1001,-1165,1684,-295,903,-14,10003
973,-1180,1683,65,927,-61,10003
1010,-1157,1576,343,922,-81,10003
1086,-1082,1513,530,931,-96,10003
1158,-1004,1459,570,897,-100,10003
1275,-995,1377,538,875,-97,10003
1325,-1030,1296,514,816,-125,10003
1355,-1070,1285,438,751,-146,10003
1346,-1166,1366,427,663,-188,10003
1353,-1271,1412,520,565,-223,10003
1323,-1269,1419,583,486,-208,10003
1287,-1182,1436,416,423,-151,10003
1267,-1200,1389,195,327,-119,10003
1304,-1266,1356,25,263,-81,10003
1296,-1251,1397,-62,230,-57,10003
1224,-1195,1403,-139,186,-68,10003
1186,-1128,1395,-248,133,-62,10003
1187,-1177,1427,-317,120,-42,10003
1146,-1173,1443,-329,106,-54,10003
1108,-1119,1464,-348,105,-61,10003
1058,-1073,1448,-377,124,-113,10003
1054,-1089,1522,-361,151,-127,10003
1034,-1068,1472,-250,160,-201,10003
1046,-1090,1455,-159,196,-206,10003
1063,-1098,1417,-89,208,-224,10003
1050,-1071,1443,-65,227,-241,10003
1028,-1028,1480,-123,256,-280,10003
1013,-1008,1511,-206,304,-317,10003
1037,-1035,1510,-263,331,-286,10003
1076,-1172,1478,-237,334,-270,10003
1109,-1145,1461,-119,333,-294,10003
1151,-1183,1484,-47,346,-263,10003
1136,-1160,1470,-35,342,-265,10003
1132,-1090,1488,-116,338,-254,10003
1094,-1039,1433,-236,326,-270,10003
1088,-1045,1419,-327,298,-253,10003
1102,-1109,1413,-315,258,-245,10003
1081,-1090,1423,-269,214,-248,10003
1078,-1067,1448,-260,183,-249,10003
1081,-1051,1473,-258,154,-253,10003
1071,-1081,1490,-244,125,-257,10003
1056,-1072,1477,-233,104,-256,10003
1032,-1049,1495,-216,97,-248,10003
984,-1076,1454,-189,52,-249,10003
1035,-1064,1473,-154,5,-211,10003
1031,-1058,1470,-177,-7,-240,10003
937,-1022,1430,-123,-95,-213,10003
1012,-1039,1424,-146,-169,-173,10003
1089,-1096,1433,-163,-173,-145,10003
1099,-1115,1455,-89,-186,-104,10003
1116,-1147,1503,-15,-192,-64,10003
1113,-1050,1513,7,-189,-49,10003
1110,-994,1536,-84,-160,-29,10003
1100,-1007,1534,-169,-127,2,10003
1087,-1040,1526,-190,-115,-3,10003
1081,-1044,1525,-162,-90,-4,10003
1081,-1070,1561,-132,-54,-4,10003
1071,-1070,1549,-91,-27,19,10003
1051,-1067,1538,-37,2,13,10003
1048,-1066,1514,-37,24,20,10003
1036,-1068,1497,-42,32,32,10003
1032,-1070,1458,-41,34,49,10003
1016,-1076,1428,-38,39,43,10003
1014,-1075,1413,-26,28,45,10003
1038,-1051,1430,-12,12,27,10003
1085,-1029,1446,-26,8,22,10003
1093,-1055,1452,-41,8,12,10003
1089,-1061,1460,-30,20,4,10003
1095,-1085,1487,-24,33,13,10003
1102,-1095,1478,-40,37,22,10003
1104,-1090,1476,-71,49,47,10003
1091,-1092,1459,-115,65,53,10003
1076,-1103,1463,-117,59,53,10003
1070,-1083,1451,-100,36,36,10003
1069,-1073,1456,-77,43,41,10003
1071,-1054,1430,-84,28,47,10003
1061,-1067,1448,-71,17,36,10003
1065,-1073,1418,-53,2,33,10003
1068,-1070,1440,-30,-14,38,10003
1073,-1077,1460,-31,-22,38,10003
1087,-1087,1460,-46,-25,47,10003
1086,-1087,1458,-42,-25,55,10003
1089,-1093,1478,-53,-22,51,10003
1089,-1091,1461,-36,-20,48,10003
1084,-1078,1465,-39,-8,51,10003
1082,-1068,1468,-45,-9,54,10003
1081,-1078,1471,-59,-9,54,10003
1073,-1078,1462,-56,-9,52,10003
1070,-1091,1436,-37,-20,51,10003
1061,-1090,1444,-5,-21,42,10003
1068,-1086,1451,0,-23,49,10003
1067,-1073,1440,4,-26,45,10003
1068,-1061,1442,-6,-21,38,10003
1070,-1059,1436,-22,-3,15,10003
1069,-1078,1443,-21,-7,20,10003
1070,-1091,1466,-12,-4,23,10003
1082,-1091,1468,0,-7,17,10003
1081,-1095,1454,-2,-3,14,10003
1089,-1076,1471,5,7,9,10003
1076,-1082,1455,4,9,11,10003
1081,-1084,1462,6,8,10,10003
1079,-1077,1445,-22,17,19,10003
1071,-1071,1433,-30,22,6,10003
1068,-1082,1444,-33,-3,7,10003
1077,-1085,1442,-50,4,11,10003
1068,-1085,1449,-43,-7,13,10003
1066,-1078,1449,-47,-9,2,10003
1065,-1076,1434,-49,-17,12,10003
1079,-1076,1461,-48,-15,4,10003
1084,-1097,1463,-16,-9,8,10003
1086,-1098,1458,-2,-9,11,10003
1082,-1094,1460,27,-6,11,10003
1079,-1095,1472,14,4,25,10003
1073,-1071,1457,4,13,22,10003
1061,-1071,1444,-22,11,21,10003
1059,-1069,1439,-29,11,29,10003
1058,-1076,1450,-33,0,16,10003
1061,-1075,1435,-26,-4,5,10003
1059,-1086,1448,-27,-2,8,10003
1076,-1091,1466,-22,2,15,10003
1069,-1078,1458,-18,7,6,10003
1067,-1073,1461,-28,7,9,10003
1070,-1090,1470,-28,5,12,10003
1075,-1084,1456,-15,9,9,10003
1070,-1086,1466,4,18,22,10003
1069,-1095,1474,2,16,22,10003
1066,-1077,1458,6,21,16,10003
1067,-1066,1459,-8,16,24,10003
1068,-1071,1452,-11,17,23,10003
1067,-1081,1452,-17,7,22,10003
1061,-1079,1444,-6,4,25,10003
1067,-1085,1453,8,10,33,10003
1060,-1092,1460,13,7,38,10003
1065,-1073,1457,14,-2,28,10003
1068,-1080,1452,3,9,26,10003
1053,-1071,1464,-5,5,28,10003
1051,-1071,1451,-13,7,26,10003
1067,-1063,1445,-19,3,30,10003
1069,-1092,1460,-24,-2,25,10003
1072,-1097,1470,-4,7,24,10003
1081,-1088,1463,1,1,39,10003
1078,-1072,1472,-17,15,38,10003
1064,-1082,1474,-22,12,27,10003
1060,-1080,1469,-23,23,27,10003
1065,-1073,1454,-2,16,23,10003
1053,-1076,1464,-4,19,18,10003
1060,-1074,1455,5,17,17,10003
1064,-1081,1461,3,16,5,10003
1058,-1082,1471,9,12,18,10003
1073,-1093,1464,9,20,20,10003
1077,-1087,1478,9,16,14,10003
1068,-1097,1483,11,18,8,10003
1069,-1091,1477,11,21,13,10003
1062,-1075,1460,-11,31,22,10003
1062,-1085,1452,-21,24,17,10003
1074,-1090,1454,-19,19,23,10003
1078,-1092,1469,-13,22,26,10003
1073,-1088,1476,-10,14,37,10003
1066,-1077,1472,-5,11,35,10003
1053,-1072,1456,6,15,29,10003
1047,-1061,1450,7,4,25,10003
1051,-1056,1451,9,-5,28,10003
1054,-1082,1469,0,-1,26,10003
1064,-1092,1466,0,9,30,10003
1067,-1099,1481,6,20,35,10003
1070,-1089,1468,12,14,28,10003
1067,-1070,1465,13,20,26,10003
1074,-1074,1453,-6,23,23,10003
1058,-1070,1458,-6,5,22,10003
1059,-1075,1455,-13,11,35,10003
1062,-1079,1454,0,-2,22,10003
1060,-1083,1453,18,-2,20,10003
1061,-1070,1464,6,9,12,10003
1051,-1072,1467,3,0,25,10003
1059,-1084,1470,-14,2,27,10003
1059,-1080,1468,-15,10,18,10003
1066,-1087,1472,2,6,15,10003
1062,-1091,1449,10,-3,19,10003
1072,-1087,1470,24,4,19,10003
1068,-1070,1468,14,2,21,10003
1060,-1076,1473,4,12,17,10003
1063,-1065,1466,0,5,9,10003
1046,-1069,1460,3,-8,8,10003
1053,-1071,1458,13,0,14,10003
1049,-1077,1465,30,5,9,10003
1048,-1072,1463,22,-5,15,10003
1061,-1075,1467,14,7,16,10003
1054,-1079,1475,-3,-6,7,10003
1069,-1076,1465,-19,4,23,10003
1074,-1077,1483,-34,16,18,10003
1067,-1085,1474,-24,8,25,10003
1059,-1074,1470,-17,4,14,10003
1062,-1069,1473,-11,1,5,10003
1054,-1079,1461,-2,-3,14,10003
1055,-1076,1462,-7,-4,5,10003
1058,-1071,1489,-7,-4,2,10003
1063,-1083,1489,6,-12,14,10003
1062,-1075,1476,10,6,13,10003
1054,-1068,1476,18,0,10,10003
1056,-1067,1465,2,-1,5,10003
1062,-1073,1468,-16,-3,9,10003
1068,-1074,1465,-25,-6,9,10003
1060,-1074,1464,-14,-10,17,10003
1063,-1085,1470,-21,-7,16,10003
1068,-1077,1473,-24,-1,15,10003
1058,-1083,1467,-26,-5,18,10003
1055,-1074,1469,-21,-7,20,10003
1050,-1067,1475,-23,-6,13,10003
1049,-1067,1473,-18,-5,14,10003
1062,-1072,1474,-15,-14,16,10003
1061,-1080,1480,8,-7,11,10003
1059,-1079,1469,4,-3,20,10003
1059,-1058,1470,13,6,17,10003
1056,-1072,1469,1,-8,18,10003
1054,-1071,1469,-11,-11,24,10003
1056,-1059,1465,-32,-11,25,10003
1058,-1075,1462,-43,-25,21,10003
1064,-1078,1464,-37,-26,24,10003
1059,-1087,1482,-23,-27,24,10003
1065,-1099,1481,-2,-19,23,10003
1074,-1081,1491,7,-17,28,10003
1061,-1083,1475,19,-21,24,10003
1061,-1076,1472,7,-20,25,10003
1059,-1064,1461,-2,-16,25,10003
1056,-1069,1448,-8,-27,29,10003
1055,-1072,1464,-11,-26,23,10003
1056,-1079,1454,-17,-25,32,10003
1059,-1073,1475,-23,-20,31,10003
1058,-1086,1466,-31,-18,35,10003
1060,-1072,1465,-27,-13,25,10003
1054,-1073,1454,-15,-17,31,10003
1054,-1052,1459,-20,-22,22,10003
1053,-1062,1466,-13,-10,20,10003
1065,-1078,1467,-7,-20,15,10003
1072,-1097,1479,5,-9,20,10003
1070,-1082,1478,8,-11,22,10003
1069,-1091,1483,6,-1,19,10003
1078,-1084,1459,5,4,13,10003
1066,-1067,1467,-8,9,7,10003
1056,-1069,1446,-16,1,8,10003
1054,-1059,1443,-14,-4,9,10003
1056,-1068,1448,-23,-3,10,10003
1057,-1066,1451,-29,-15,-2,10003
1053,-1073,1480,-19,-12,6,10003
1050,-1083,1481,-13,-19,1,10003
1062,-1086,1488,-3,-11,6,10003
1061,-1087,1493,10,-12,2,10003
1072,-1089,1483,0,-9,5,10003
1066,-1075,1480,-18,-1,13,10003
1067,-1073,1465,-32,2,11,10003
1067,-1081,1473,-27,10,2,10003
1064,-1076,1459,-19,3,0,10003
1063,-1068,1468,-23,7,8,10003
1050,-1071,1474,-20,4,5,10003
1046,-1068,1464,-13,1,9,10003
1050,-1074,1454,-13,6,6,10003
1052,-1074,1470,-10,3,6,10003
1058,-1074,1480,-8,-2,-4,10003
1059,-1073,1466,12,-4,-1,10003
1065,-1072,1476,2,4,1,10003
1064,-1078,1467,-11,10,13,10003
1064,-1063,1469,-41,8,-3,10003
1058,-1068,1464,-49,6,-2,10003
1061,-1075,1464,-50,3,13,10003
1054,-1077,1455,-37,3,8,10003
1054,-1073,1471,-24,-1,8,10003
1060,-1080,1483,-23,9,5,10003
1052,-1078,1460,-18,8,4,10003
1062,-1068,1461,-15,13,5,10003
1060,-1078,1473,-14,9,12,10003
1060,-1068,1471,-25,12,16,10003
1058,-1075,1455,-30,8,22,10003
1061,-1065,1463,-29,-2,14,10003
1058,-1063,1464,-18,-4,12,10003
1059,-1068,1485,-22,-6,9,10003
1059,-1069,1467,-21,0,10,10003
1064,-1069,1483,-25,-1,17,10003
1057,-1084,1475,-16,3,14,10003
1065,-1069,1479,-8,-2,11,10003
1069,-1086,1479,-12,20,24,10003
1064,-1080,1467,-35,8,29,10003
1063,-1065,1468,-40,12,12,10003
1063,-1071,1478,-38,2,23,10003
1064,-1067,1472,-41,14,18,10003
1063,-1069,1482,-39,11,27,10003
1063,-1071,1466,-27,0,8,10003
1050,-1081,1469,-26,-7,13,10003
1057,-1062,1469,-12,2,10,10003
1057,-1064,1464,-30,-12,20,10003
1059,-1073,1483,-39,-12,8,10003
1063,-1075,1476,-31,-5,8,10003
1064,-1080,1475,-38,-2,19,10003
1064,-1081,1493,-31,-8,24,10003
1064,-1080,1455,-39,-14,32,10003
1060,-1069,1463,-24,-10,16,10003
1058,-1079,1460,-15,-11,16,10003
1058,-1070,1470,-11,-11,30,10003
1057,-1066,1477,-8,-13,30,10003
1060,-1063,1469,-1,-8,21,10003
1057,-1068,1478,-7,-10,22,10003
1051,-1064,1469,-9,-11,17,10003
1065,-1072,1475,-8,-7,20,10003
1060,-1076,1463,-18,-2,20,10003
1066,-1076,1466,-13,-2,21,10003
1070,-1093,1482,-15,6,7,10003
1067,-1088,1476,-16,11,14,10003
1057,-1086,1465,-9,10,20,10003
1068,-1086,1487,-17,10,9,10003
1069,-1088,1464,-14,9,7,10003
1069,-1071,1460,-20,12,12,10003
1064,-1064,1460,-28,6,13,10003
1059,-1070,1459,-42,0,5,10003
1064,-1066,1470,-45,1,6,10003
1054,-1067,1464,-49,7,15,10003
1058,-1081,1468,-40,10,5,10003
1062,-1084,1475,-32,0,-2,10003
1054,-1076,1485,-17,2,0,10003
1056,-1081,1474,-13,3,7,10003
1056,-1081,1476,-10,9,9,10003
1068,-1073,1483,-10,16,10,10003
1070,-1075,1472,-13,15,10,10003
1059,-1066,1470,-28,5,19,10003
1064,-1068,1460,-44,12,11,10003
1059,-1069,1465,-32,2,12,10003
1044,-1070,1477,-31,10,5,10003
1046,-1071,1468,-27,11,6,10003
1054,-1080,1462,-21,15,17,10003
1060,-1081,1466,-18,19,0,10003
1056,-1072,1470,-9,17,7,10003
1055,-1076,1474,-23,28,4,10003
1067,-1078,1475,-13,28,5,10003
1064,-1068,1476,-18,20,6,10003
1058,-1077,1484,-10,19,-1,10003
1057,-1069,1475,-13,26,6,10003
1047,-1075,1481,-14,14,5,10003
1054,-1063,1473,-35,21,18,10003
1072,-1089,1475,-40,18,14,10003
1066,-1080,1474,-41,22,8,10003
1058,-1079,1471,-31,18,13,10003
1053,-1089,1483,-24,14,18,10003
1059,-1071,1463,-11,17,10,10003
1049,-1075,1479,-23,16,5,10003
1063,-1090,1481,-16,10,19,10003
1060,-1083,1478,-9,17,20,10003
1056,-1076,1474,-19,17,13,10003
1059,-1065,1469,-30,18,14,10003
1054,-1059,1478,-43,16,18,10003
1059,-1069,1455,-35,14,15,10003
1049,-1071,1468,-26,6,4,10003
1054,-1070,1468,-25,7,2,10003
1055,-1080,1465,-29,7,5,10003
1052,-1080,1490,-17,10,0,10003
1062,-1087,1480,-26,11,8,10003
1065,-1075,1470,-38,22,2,10003
1056,-1073,1478,-50,21,4,10003
1059,-1090,1497,-34,23,12,10003
1065,-1073,1464,-26,21,3,10003
1057,-1071,1472,-29,32,2,10003
1046,-1077,1461,-31,18,5,10003
1052,-1073,1477,-35,8,5,10003
1047,-1081,1484,-30,17,-1,10003
1054,-1078,1473,-23,7,-1,10003
1055,-1096,1485,-17,7,6,10003
1062,-1084,1488,-10,10,6,10003
1064,-1086,1475,-7,14,1,10003
1056,-1072,1473,-28,3,4,10003
1063,-1067,1461,-35,0,6,10003
1057,-1084,1468,-19,-10,21,10003
1057,-1076,1477,-20,-3,14,10003
1056,-1072,1479,-18,5,14,10003
1048,-1073,1474,-14,0,8,10003
1049,-1067,1461,-17,-5,21,10003
1051,-1078,1491,-17,0,14,10003
1055,-1083,1472,0,-3,7,10003
1051,-1081,1486,1,-3,14,10003
1061,-1090,1474,-5,-5,10,10003
1066,-1084,1485,-20,7,18,10003
1057,-1074,1472,-34,2,16,10003
1053,-1070,1457,-33,2,10,10003
1050,-1069,1470,-15,1,28,10003
1060,-1076,1466,-9,-1,20,10003
1048,-1073,1462,-10,3,10,10003
1051,-1064,1459,-22,-4,11,10003
1047,-1070,1471,-20,-1,23,10003
1044,-1080,1472,-30,-9,25,10003
1049,-1069,1482,-28,-4,18,10003
1049,-1088,1476,-25,-11,16,10003
1054,-1081,1484,-14,-16,13,10003
1065,-1084,1491,-10,-2,23,10003
1058,-1094,1492,-3,4,13,10003
1055,-1080,1492,-1,7,11,10003
1066,-1078,1473,-7,-3,21,10003
1051,-1082,1478,-3,2,21,10003
1046,-1065,1458,-17,-4,24,10003
1044,-1073,1468,-13,-9,18,10003
1049,-1076,1468,-11,-4,19,10003
1060,-1080,1485,0,7,18,10003
1049,-1075,1467,-12,1,17,10003
1048,-1081,1460,-15,-1,11,10003
1050,-1072,1471,-24,11,9,10003
1054,-1070,1463,-21,11,15,10003
1049,-1081,1463,-21,10,11,10003
1061,-1086,1477,-26,-1,14,10003
1069,-1082,1475,-31,0,15,10003
1057,-1092,1481,-22,4,12,10003
1060,-1084,1485,-15,8,5,10003
1040,-1075,1477,-4,8,14,10003
1050,-1071,1478,-14,9,8,10003
1051,-1061,1467,-22,9,7,10003
1049,-1062,1461,-14,8,9,10003
1051,-1073,1465,-13,1,8,10003
1050,-1084,1478,-14,0,12,10003
1060,-1079,1487,-21,-2,12,10003
1049,-1090,1479,-10,7,15,10003
1054,-1080,1477,-21,-2,18,10003
1044,-1074,1471,-23,2,-5,10003
1052,-1078,1473,-17,5,10,10003
1052,-1068,1472,-26,6,11,10003
1051,-1070,1482,-20,8,9,10003
1056,-1080,1483,-15,6,6,10003
1054,-1076,1498,-17,10,7,10003
1048,-1084,1476,-11,9,21,10003
1048,-1076,1475,-4,10,12,10003
1040,-1070,1472,-13,11,9,10003
1043,-1073,1473,-5,11,13,10003
1047,-1069,1464,-4,4,13,10003
1050,-1055,1473,-14,7,16,10003
1051,-1069,1480,-15,7,15,10003
1047,-1072,1484,-24,-3,26,10003
1059,-1080,1460,-33,-1,19,10003
1051,-1079,1481,-44,-11,18,10003
1051,-1086,1473,-36,-13,25,10003
1057,-1084,1486,-24,-12,19,10003
1053,-1077,1481,-21,-14,21,10003
1057,-1083,1488,-17,-22,15,10003
1049,-1085,1477,-5,-17,22,10003
1058,-1086,1484,12,-18,13,10003
1057,-1071,1485,13,-11,35,10003
1047,-1066,1473,13,-15,28,10003
1036,-1052,1478,-5,-23,28,10003
1036,-1062,1469,-3,-16,23,10003
1037,-1066,1466,-17,-25,27,10003
1041,-1063,1463,-23,-18,27,10003
1044,-1076,1468,-12,-20,34,10003
1058,-1072,1486,-5,-22,30,10003
1065,-1083,1494,-9,-16,29,10003
1059,-1082,1472,-1,-13,28,10003
1055,-1077,1476,-15,-10,32,10003
1059,-1083,1461,-11,-9,27,10003
1055,-1065,1463,-7,-14,36,10003
1049,-1075,1467,6,-20,32,10003
1048,-1073,1467,-5,-11,30,10003
1049,-1071,1470,-2,-4,30,10003
1047,-1068,1474,1,-21,32,10003
1045,-1082,1464,-12,-23,34,10003
1042,-1075,1479,-18,-15,28,10003
1050,-1062,1467,-18,-21,28,10003
1051,-1072,1472,-20,-25,25,10003
1056,-1084,1478,-19,-23,27,10003
1059,-1083,1484,-15,-26,28,10003
1064,-1082,1476,-7,-15,27,10003
1062,-1083,1485,2,-15,21,10003
1050,-1078,1487,0,-16,20,10003
1056,-1070,1468,7,-19,31,10003
1045,-1068,1481,-6,-13,3,10003
1045,-1071,1479,-11,-5,14,10003
1047,-1082,1466,4,-8,18,10003
1048,-1073,1474,7,-10,13,10003
1042,-1061,1463,-4,-6,12,10003
1052,-1073,1479,-17,-6,10,10003
1050,-1082,1473,-12,1,7,10003
1057,-1088,1471,-10,-2,10,10003
1053,-1089,1474,-11,10,2,10003
1065,-1093,1473,-4,9,13,10003
1055,-1081,1465,-3,17,2,10003
1057,-1089,1465,-12,24,11,10003
1054,-1082,1471,-13,22,-6,10003
1052,-1070,1473,-21,21,12,10003
1056,-1064,1481,-22,16,7,10003
1056,-1078,1479,-21,15,12,10003
1052,-1071,1464,-19,10,-4,10003
1049,-1067,1464,-26,14,21,10003
1049,-1088,1487,-27,3,17,10003
1051,-1089,1481,-28,7,14,10003
1052,-1077,1481,-25,5,20,10003
1046,-1079,1479,-26,-1,17,10003
1048,-1070,1480,-29,0,25,10003
1052,-1074,1476,-36,-1,25,10003
1046,-1067,1465,-38,-1,18,10003
1051,-1063,1462,-19,-5,20,10003
1054,-1079,1484,-35,-12,21,10003
1048,-1085,1491,-29,-14,21,10003
1050,-1075,1479,-29,-13,14,10003
1051,-1082,1484,-21,-4,20,10003
1049,-1082,1491,-15,-13,24,10003
1057,-1071,1494,-21,5,27,10003
1044,-1071,1477,-18,0,22,10003
1044,-1074,1473,-17,-7,17,10003
1047,-1079,1476,-13,-10,18,10003
1042,-1063,1484,-20,-21,11,10003
1043,-1071,1470,-12,-13,18,10003
1044,-1084,1482,-19,-22,17,10003
1049,-1081,1480,-23,-12,30,10003
1050,-1082,1482,-26,-15,23,10003
1051,-1082,1484,-22,-15,20,10003
1055,-1079,1473,-18,-24,19,10003
1061,-1084,1485,-5,-20,26,10003
1051,-1075,1467,-9,-19,24,10003
1039,-1062,1458,-13,-21,24,10003
1044,-1074,1484,-15,-28,38,10003
1043,-1070,1464,-14,-16,29,10003
1042,-1071,1464,-13,-20,36,10003
1042,-1081,1487,-5,-24,29,10003
1045,-1086,1485,-9,-11,32,10003
1038,-1064,1476,0,-21,27,10003
1055,-1081,1463,8,-16,22,10003
1046,-1077,1470,11,-15,23,10003
1056,-1067,1457,6,-12,31,10003
1057,-1080,1484,-1,-14,35,10003
1049,-1088,1472,-1,-23,38,10003
1061,-1083,1470,13,-14,33,10003
1063,-1092,1484,5,-7,40,10003
1064,-1079,1469,19,-10,48,10003
1061,-1070,1463,-8,-5,43,10003
1056,-1071,1469,-2,-17,43,10003
1052,-1063,1457,-20,-19,41,10003
1060,-1078,1470,-23,-25,30,10003
1059,-1078,1476,-18,-27,34,10003
1048,-1084,1476,-3,-21,37,10003
1059,-1081,1477,-10,-20,34,10003
1058,-1086,1490,-9,-14,31,10003
1053,-1085,1469,-22,-10,38,10003
1055,-1088,1465,-12,-1,25,10003
1047,-1078,1462,-6,-3,32,10003
1043,-1070,1467,-6,1,23,10003
1046,-1067,1467,-10,-3,28,10003
1046,-1059,1456,-20,6,12,10003
1042,-1082,1478,-18,-2,12,10003
1046,-1086,1477,-17,1,7,10003
1057,-1078,1460,-26,-5,12,10003
1053,-1079,1471,-30,8,16,10003
1061,-1084,1471,-29,10,-4,10003
1059,-1072,1477,-28,9,7,10003
1056,-1080,1481,-33,15,1,10003
1064,-1086,1492,-23,14,-3,10003
1058,-1088,1481,-16,19,6,10003
1049,-1075,1481,-18,16,1,10003
1043,-1081,1485,-5,17,0,10003
1059,-1070,1475,-8,13,2,10003
1044,-1061,1466,-23,11,-10,10003
1048,-1066,1473,-15,13,-7,10003
1040,-1078,1478,-11,2,-8,10003
1047,-1082,1474,-6,2,0,10003
1052,-1070,1479,-24,4,-12,10003
1048,-1083,1478,-19,-1,-4,10003
1058,-1083,1495,-21,-3,-7,10003
1063,-1078,1481,-23,9,-5,10003
1052,-1073,1470,-33,4,0,10003
1048,-1077,1465,-28,14,0,10003
1047,-1070,1478,-26,-11,-6,10003
1054,-1068,1467,-27,-3,-4,10003
1053,-1068,1476,-33,-1,-5,10003
1036,-1081,1484,-34,-6,-16,10003
1044,-1065,1474,-33,-10,-3,10003
1055,-1071,1494,-25,0,-6,10003
1046,-1074,1480,-24,-4,-7,10003
1049,-1077,1485,-26,1,-10,10003
1047,-1066,1474,-12,-2,-6,10003
1050,-1070,1478,-31,-7,-1,10003
1046,-1081,1482,-36,-19,5,10003
1059,-1080,1486,-32,-17,2,10003
1047,-1090,1475,-36,-6,2,10003
1053,-1082,1481,-24,-22,5,10003
1044,-1082,1480,-30,-13,4,10003
1054,-1069,1485,-35,-30,8,10003
1056,-1079,1477,-28,-20,13,10003
1048,-1064,1467,-30,-33,8,10003
1048,-1069,1472,-30,-33,22,10003
1044,-1072,1486,-9,-31,21,10003
1045,-1075,1490,-6,-29,22,10003
1047,-1072,1485,-3,-39,18,10003
1053,-1075,1458,-17,-28,35,10003
1049,-1061,1478,-24,-27,26,10003
1056,-1071,1460,-23,-30,25,10003
1051,-1076,1464,-29,-28,21,10003
1052,-1073,1469,-21,-32,35,10003
1054,-1078,1469,-18,-35,37,10003
1063,-1089,1485,-15,-34,23,10003
1057,-1084,1478,-18,-25,30,10003
1057,-1081,1461,-18,-31,20,10003
1049,-1077,1463,-26,-24,23,10003
1057,-1060,1471,-20,-17,25,10003
1053,-1074,1454,-34,-27,33,10003
1050,-1067,1470,-27,-23,25,10003
1058,-1079,1466,-28,-30,30,10003
1060,-1085,1477,-26,-26,22,10003
1061,-1085,1475,-24,-28,24,10003
1069,-1082,1480,-13,-22,22,10003
1064,-1087,1471,-14,-18,21,10003
1063,-1080,1473,-20,-17,27,10003
1064,-1082,1476,-18,-13,20,10003
1067,-1078,1467,-26,-17,19,10003
1059,-1077,1473,-23,-19,14,10003
1052,-1074,1457,-41,-12,13,10003
1060,-1074,1467,-22,-16,16,10003
1051,-1088,1458,-27,-12,22,10003
1057,-1081,1470,-18,-11,7,10003
1051,-1080,1454,-18,2,14,10003
1058,-1079,1477,-14,-6,11,10003
1061,-1085,1469,-14,-11,10,10003
1062,-1073,1451,-23,0,8,10003
1050,-1079,1463,-19,5,10,10003
1062,-1085,1470,-14,-1,7,10003
1058,-1086,1466,-3,7,9,10003
1060,-1084,1460,-10,4,2,10003
1051,-1085,1466,-12,4,13,10003
1053,-1081,1477,-18,2,9,10003
1054,-1064,1474,-20,5,4,10003
1053,-1079,1464,-23,-6,15,10003
1057,-1082,1472,-17,-3,2,10003
1056,-1080,1476,-12,-4,10,10003
1054,-1074,1464,-7,2,-1,10003
1048,-1072,1474,-6,2,11,10003
1057,-1078,1469,-8,1,5,10003
1056,-1076,1461,-16,9,5,10003
1058,-1068,1458,-24,12,-1,10003
1062,-1083,1462,-19,-3,5,10003
1057,-1088,1470,-15,15,5,10003
1064,-1081,1484,-2,20,12,10003
1060,-1087,1482,-14,26,0,10003
1060,-1089,1470,-13,19,2,10003
1063,-1080,1475,-4,28,12,10003
1046,-1076,1471,-5,22,9,10003
1048,-1061,1459,-16,23,17,10003
1052,-1070,1464,-20,24,4,10003
1060,-1058,1464,-31,23,3,10003
1055,-1074,1473,-30,15,13,10003
1049,-1080,1469,-28,19,3,10003
1057,-1083,1461,-21,35,13,10003
1050,-1088,1481,-26,16,14,10003
1051,-1082,1485,-38,18,5,10003
1050,-1087,1474,-30,15,8,10003
1048,-1074,1482,-23,19,11,10003
1051,-1086,1480,-10,14,14,10003
1051,-1085,1470,-5,12,2,10003
1058,-1065,1474,-11,12,9,10003
1045,-1056,1467,-6,12,18,10003
1045,-1072,1474,-6,6,22,10003
1053,-1076,1468,-19,4,17,10003
1047,-1063,1465,-15,16,21,10003
1047,-1071,1474,-25,9,15,10003
1053,-1076,1484,-18,14,23,10003
1051,-1079,1484,-12,9,18,10003
1056,-1086,1496,-3,12,12,10003
1065,-1089,1483,1,17,12,10003
1055,-1082,1473,1,17,15,10003
1059,-1076,1481,3,5,14,10003
1058,-1079,1468,1,14,8,10003
1063,-1071,1467,-12,12,21,10003
1049,-1069,1461,-12,10,23,10003
1063,-1077,1474,-16,12,18,10003
1049,-1069,1469,-14,11,10,10003
1035,-1064,1464,-25,10,20,10003
1044,-1082,1483,-28,10,30,10003
1044,-1081,1481,-10,13,14,10003
1052,-1077,1482,-13,14,22,10003
1045,-1074,1477,-17,9,14,10003
1060,-1079,1467,-20,11,11,10003
1055,-1070,1473,-24,17,11,10003
1049,-1079,1466,-20,13,12,10003
1051,-1079,1490,-20,12,21,10003
1056,-1069,1473,-19,16,14,10003
1043,-1076,1467,-23,16,11,10003
1039,-1078,1479,-15,12,3,10003
1038,-1079,1468,-7,11,8,10003
1040,-1072,1481,-3,13,11,10003
1046,-1083,1484,-15,9,19,10003
1045,-1071,1477,-2,16,5,10003
1048,-1077,1483,-11,27,8,10003
1049,-1071,1480,-16,15,11,10003
1046,-1078,1473,-17,12,8,10003
1046,-1075,1475,-25,21,7,10003
1058,-1088,1491,-11,12,17,10003
1054,-1075,1479,-17,22,6,10003
1046,-1067,1477,-19,17,13,10003
1050,-1070,1471,-24,12,3,10003
1053,-1058,1479,-16,15,7,10003
1051,-1076,1467,-23,5,10,10003
1042,-1077,1469,-17,9,9,10003
1045,-1080,1494,-11,10,16,10003
1043,-1083,1489,-10,18,12,10003
1060,-1071,1485,-15,10,9,10003
1057,-1082,1467,-11,17,7,10003
1051,-1082,1469,-8,13,13,10003
1049,-1072,1484,-16,15,3,10003
1047,-1077,1489,-21,4,19,10003
1047,-1072,1470,-14,10,15,10003
1046,-1068,1479,-26,-6,15,10003
1038,-1071,1483,-20,13,14,10003
1038,-1070,1477,-26,-4,11,10003
1047,-1073,1482,-24,2,16,10003
1050,-1082,1475,-18,7,15,10003
1059,-1078,1471,-16,9,16,10003
1051,-1065,1481,-23,5,14,10003
1043,-1073,1488,-35,6,17,10003
1046,-1070,1470,-29,6,14,10003
1052,-1076,1489,-29,5,18,10003
1046,-1076,1475,-20,7,11,10003
1049,-1081,1495,-24,6,8,10003
1047,-1070,1481,-24,-3,1,10003
1048,-1076,1488,-22,0,13,10003
1049,-1082,1483,-34,-1,7,10003
1053,-1075,1483,-29,-7,7,10003
1049,-1083,1481,-27,-2,11,10003
1058,-1082,1486,-24,4,5,10003
1046,-1066,1484,-23,-5,9,10003
1046,-1075,1481,-16,-3,21,10003
1044,-1065,1459,-23,-3,22,10003
1044,-1066,1473,-26,-6,20,10003
1047,-1072,1476,-29,-9,16,10003
1049,-1068,1482,-22,-24,24,10003
1042,-1064,1484,-24,-8,19,10003
1039,-1071,1488,-34,-9,18,10003
1045,-1082,1482,-20,-20,10,10003
1053,-1078,1479,-12,-10,11,10003
1050,-1077,1481,-13,-5,16,10003
1051,-1084,1470,-26,-7,22,10003
1053,-1073,1487,-17,-12,17,10003
1051,-1077,1484,-23,-14,26,10003
1050,-1076,1476,-15,-13,14,10003
1051,-1071,1468,-19,-15,12,10003
1045,-1076,1475,-18,-9,13,10003
1046,-1075,1472,-14,-10,11,10003
1047,-1063,1474,-26,-8,25,10003
1044,-1072,1479,-30,-25,24,10003
1041,-1076,1478,-24,-19,14,10003
1052,-1080,1476,-23,-29,9,10003
1052,-1079,1494,-24,-25,8,10003
1047,-1077,1481,-15,-30,22,10003
1054,-1084,1481,-13,-18,14,10003
1046,-1079,1470,-5,-23,11,10003
1050,-1085,1467,-7,-12,15,10003
1043,-1072,1467,-9,-14,21,10003
1041,-1064,1469,-21,-25,17,10003
1041,-1066,1469,-37,-25,17,10003
1034,-1073,1457,-25,-30,14,10003
1046,-1074,1469,-24,-19,18,10003
1047,-1066,1486,-32,-27,15,10003
1039,-1079,1478,-18,-23,12,10003
1047,-1092,1489,-16,-18,20,10003
1045,-1090,1484,-21,-6,10,10003
1061,-1084,1491,-12,-6,21,10003
1052,-1083,1473,-14,1,18,10003
1042,-1071,1471,-12,-3,18,10003
1056,-1078,1479,-9,-15,15,10003
1050,-1068,1469,-15,-22,14,10003
1035,-1070,1468,-16,-13,19,10003
1045,-1076,1483,-11,-21,20,10003
1037,-1062,1465,-6,-16,19,10003
1042,-1072,1468,-5,-11,18,10003
1046,-1080,1476,-13,-11,18,10003
1050,-1083,1476,-14,-13,24,10003
1044,-1094,1480,-1,-6,17,10003
1058,-1082,1468,-4,-7,26,10003
1048,-1078,1475,-1,-3,27,10003
1060,-1080,1475,1,-7,18,10003
1051,-1078,1477,2,-5,26,10003
1049,-1081,1463,-4,-8,20,10003
1044,-1068,1461,-16,-4,23,10003
1050,-1066,1474,-16,-2,18,10003
1055,-1078,1490,-10,-10,25,10003
1057,-1075,1475,-15,-6,20,10003
1056,-1077,1467,-9,-3,23,10003
1042,-1079,1483,-10,-2,22,10003
1046,-1068,1468,-8,-9,19,10003
1042,-1079,1471,-16,0,15,10003
1046,-1081,1483,-22,-3,17,10003
1041,-1082,1483,-6,-1,15,10003
1043,-1079,1475,2,-5,12,10003
1041,-1063,1477,-2,-6,4,10003
1045,-1067,1471,-13,-2,12,10003
1051,-1078,1475,-16,-4,-1,10003
1050,-1083,1495,-16,-12,8,10003
1057,-1083,1485,-19,-6,12,10003
1049,-1084,1496,-19,-3,7,10003
1057,-1075,1473,-19,7,14,10003
1054,-1090,1486,-8,-14,7,10003
1049,-1085,1480,-1,1,20,10003
1054,-1075,1468,4,2,22,10003
1043,-1057,1470,-10,-4,17,10003
1040,-1066,1459,-11,-16,11,10003
1036,-1081,1479,-2,-13,19,10003
1044,-1071,1478,-2,-10,23,10003
1053,-1082,1483,-11,-4,18,10003
1057,-1079,1481,-6,-1,15,10003
1052,-1073,1467,-4,1,21,10003
1051,-1077,1491,-4,3,9,10003
1049,-1066,1467,-4,-11,9,10003
1048,-1077,1482,0,-8,15,10003
1051,-1077,1488,1,-18,12,10003
1057,-1083,1476,9,-20,19,10003
1056,-1075,1482,6,-12,21,10003
1052,-1070,1485,2,1,19,10003
1047,-1063,1476,-2,-19,20,10003
1041,-1065,1469,-11,-18,22,10003
1043,-1067,1479,-11,-17,22,10003
1042,-1073,1464,-23,-27,14,10003
1052,-1080,1484,-21,-21,18,10003
1055,-1076,1487,-16,-24,16,10003
1057,-1067,1472,-14,-27,9,10003
1054,-1059,1471,-14,-34,4,10003
1059,-1071,1478,-12,-19,16,10003
1057,-1080,1474,-21,-16,13,10003
1047,-1073,1488,-14,-22,12,10003
1055,-1075,1494,-14,-9,18,10003
1056,-1079,1475,-18,-8,13,10003
1043,-1083,1476,-20,-11,20,10003
1049,-1070,1483,-7,-22,8,10003
1051,-1068,1472,-4,-26,13,10003
1051,-1068,1474,-17,-20,15,10003
1050,-1075,1479,-19,-14,6,10003
1048,-1076,1481,-17,-20,14,10003
1063,-1076,1481,-9,-16,15,10003
1051,-1078,1487,-11,-33,22,10003
1052,-1077,1487,-3,-20,18,10003
1058,-1077,1493,-4,-26,14,10003
1059,-1072,1481,-7,-17,15,10003
1054,-1082,1475,6,-24,16,10003
1050,-1080,1483,-4,-13,10,10003
1050,-1065,1464,-4,-19,5,10003
1047,-1068,1469,-21,-30,24,10003
1054,-1069,1475,-14,-30,18,10003
1053,-1075,1469,-20,-39,11,10003
1046,-1069,1476,-25,-28,18,10003
1048,-1077,1480,-15,-31,16,10003
1048,-1071,1480,-19,-28,18,10003
1061,-1077,1482,-17,-25,13,10003
1048,-1079,1475,-5,-16,13,10003
1052,-1076,1477,-13,-13,18,10003
1055,-1071,1469,-1,-7,18,10003
1050,-1060,1454,-14,-21,14,10003
1048,-1064,1458,-27,-20,14,10003
1047,-1067,1462,-32,-18,14,10003
1053,-1070,1462,-43,-27,15,10003
1052,-1054,1465,-45,-21,10,10003
1056,-1077,1476,-41,-21,9,10003
1060,-1082,1479,-31,-13,6,10003
1070,-1080,1481,-31,-9,10,10003
1058,-1066,1475,-42,2,13,10003
1063,-1085,1462,-40,-10,19,10003
1058,-1077,1476,-25,-20,17,10003
1061,-1069,1470,-29,-12,9,10003
1062,-1071,1477,-38,-21,2,10003
1049,-1072,1465,-36,-23,8,10003
1043,-1076,1479,-37,-13,11,10003
1068,-1091,1491,-20,-27,15,10003
1061,-1083,1473,-11,-9,19,10003
1070,-1076,1492,-1,-7,21,10003
1061,-1074,1479,3,-7,15,10003
1047,-1059,1462,4,-5,15,10003
1054,-1060,1462,-8,-3,22,10003
1048,-1056,1455,-9,-3,20,10003
1045,-1056,1461,-23,-12,17,10003
1054,-1077,1458,-38,-5,21,10003
1059,-1080,1456,-39,-4,29,10003
1053,-1082,1478,-25,-5,17,10003
1065,-1074,1472,-16,-1,20,10003
1069,-1080,1479,-8,6,7,10003
1062,-1080,1469,-10,7,16,10003
1060,-1072,1466,-8,15,10,10003
1056,-1071,1486,-13,9,21,10003
1063,-1079,1462,-4,9,17,10003
1056,-1067,1461,-11,4,13,10003
1048,-1056,1461,-27,3,16,10003
1044,-1069,1475,-36,3,17,10003
1056,-1081,1464,-32,-1,18,10003
1055,-1083,1477,-35,9,27,10003
1039,-1065,1471,-29,11,18,10003
1049,-1091,1488,-9,1,10,10003
1050,-1076,1477,4,13,14,10003
1059,-1077,1467,1,8,15,10003
1070,-1077,1469,-7,10,20,10003
1073,-1074,1480,-14,8,13,10003
1066,-1082,1469,-17,10,23,10003
1060,-1082,1465,-12,21,23,10003
1050,-1075,1474,-8,10,26,10003
1041,-1065,1477,-18,19,20,10003
1051,-1082,1469,-12,24,5,10003
1047,-1081,1476,-13,14,16,10003
1049,-1074,1475,7,21,8,10003
1055,-1071,1476,-5,23,18,10003
1058,-1075,1481,-3,27,6,10003
1051,-1072,1467,-1,30,-1,10003
1055,-1068,1458,-4,32,-6,10003
1057,-1072,1459,1,25,7,10003
1057,-1079,1469,-2,18,7,10003
1062,-1077,1476,10,9,7,10003
1055,-1075,1480,22,15,3,10003
1057,-1077,1495,33,21,17,10003
1056,-1059,1486,27,10,7,10003
1044,-1057,1477,36,14,10,10003
1040,-1054,1482,44,-7,10,10003
1048,-1056,1497,61,-9,14,10003
1047,-1056,1506,72,-22,7,10003
1053,-1063,1511,104,-26,-7,10003
1058,-1057,1518,139,-40,-3,10003
1073,-1076,1572,180,-29,-5,10003
1024,-1007,1571,266,-9,-61,10003
1048,-997,1561,317,-8,-49,10003
1053,-1070,1589,425,8,-61,10003
1032,-1025,1625,542,54,-110,10003
1005,-973,1668,634,71,-126,10003
1036,-967,1676,697,133,-163,10003
1028,-996,1740,800,195,-204,10003
1025,-973,1739,916,265,-245,10003
991,-927,1786,1001,344,-272,10003
1001,-946,1770,1112,401,-309,10003
1006,-972,1817,1279,476,-351,10003
974,-903,1839,1452,591,-444,10003
980,-958,1852,1695,654,-461,10003
984,-1004,1833,1904,722,-499,10003
1006,-886,1894,1968,831,-524,10003
1002,-930,1922,2013,962,-513,10003
988,-1033,1921,2204,1083,-542,10003
956,-978,1860,2466,1131,-560,10003
923,-895,1738,2598,1159,-514,10003
920,-894,1670,2607,1186,-454,10003
967,-903,1723,2596,1216,-414,10003
1023,-929,1828,2545,1274,-282,10003
1078,-996,1947,2505,1380,-144,10003
1105,-1032,2049,2487,1510,6,10003
1115,-1052,2118,2485,1678,123,10003
1109,-1013,2194,2479,1864,218,10003
1100,-952,2214,2462,2050,312,10003
1090,-944,2263,2464,2244,378,10003
1087,-813,2286,2437,2434,401,10003
1071,-751,2328,2450,2674,422,10003
1061,-771,2356,2473,2924,485,10003
1021,-730,2355,2472,3174,479,10003
974,-673,2402,2405,3442,498,10003
982,-676,2399,2277,3691,525,10003
923,-762,2414,2271,3996,559,10003
884,-729,2417,2557,4215,377,10003
822,-491,2400,2821,4448,99,10003
779,-206,2400,2788,4712,-83,10003
772,-156,2338,2555,5017,-194,10003
733,-195,2287,2302,5337,-378,10003
607,-73,2049,2036,5525,-660,10003
550,78,2116,1562,5880,-877,10003
466,78,2023,1077,6078,-1058,10003
330,-2,2095,847,6336,-1075,10003
239,-301,2086,1076,6379,-1072,10003
288,-451,2018,1442,6434,-931,10003
267,-347,1907,1629,6554,-860,10003
179,-154,1814,1400,6726,-780,10003
64,-97,1754,874,6913,-702,10003
-77,-155,1722,270,7044,-594,10003
-203,-244,1710,-188,7130,-471,10003
-312,-341,1719,-535,7174,-319,10003
-411,-385,1710,-841,7162,-144,10003
-506,-399,1719,-1023,7171,56,10003
-594,-444,1693,-1235,7131,250,10003
-667,-432,1674,-1407,7117,468,10003
-719,-509,1702,-1583,7160,760,10003
-838,-535,1693,-1847,7126,1006,10003
-980,-439,1669,-2067,7078,1258,10003
-1081,-484,1670,-2394,7093,1640,10003
-1145,-567,1688,-2538,7041,1924,10003
-1179,-641,1658,-2618,6952,2118,10003
-1231,-610,1681,-2662,6851,2334,10003
-1335,-500,1594,-2766,6659,2579,10003
-1379,-493,1516,-2790,6498,2800,10003
-1423,-622,1498,-2746,6297,3063,10003
-1494,-672,1474,-2580,5968,3304,10003
-1528,-593,1396,-2330,5625,3516,10003
-1538,-562,1488,-2067,5361,3751,10003
-1605,-446,1389,-1929,4955,3939,10003
-1624,-376,1360,-1701,4661,4081,10003
-1660,-426,1364,-1547,4364,4220,10003
-1700,-393,1324,-1398,4010,4332,10003
-1707,-325,1315,-1234,3720,4390,10003
-1711,-293,1300,-1170,3405,4457,10003
-1720,-238,1197,-1153,3096,4466,10003
-1730,-162,1148,-1092,2812,4419,10003
-1731,-145,1106,-1025,2531,4363,10003
-1730,-101,1088,-1037,2240,4343,10003
-1731,19,1024,-993,1960,4264,10003
-1714,72,1053,-911,1791,4177,10003
-1667,66,1042,-922,1613,4128,10003
-1669,117,1038,-836,1430,4021,10003
-1650,184,1011,-618,1252,3873,10003
-1596,170,1001,-378,1133,3738,10003
-1589,208,955,-102,1027,3580,10003
-1590,224,935,190,917,3418,10003
-1587,251,926,446,830,3257,10003
-1594,286,881,689,727,3068,10003
-1602,313,853,919,627,2887,10003
-1597,301,862,1099,500,2703,10003
-1557,335,854,1135,419,2532,10003
-1569,401,873,1099,380,2359,10003
-1591,437,896,1066,339,2224,10003
-1607,506,893,974,304,2121,10003
-1597,566,929,897,318,1990,10003
-1607,595,950,769,337,1873,10003
-1623,642,965,652,383,1761,10003
-1635,650,937,551,380,1616,10003
-1627,629,942,366,391,1568,10003
-1607,689,1053,115,446,1510,10003
-1614,695,1037,-99,472,1386,10003
-1642,629,1021,-159,490,1218,10003
-1624,573,999,-85,474,1110,10003
-1601,627,925,-33,436,1004,10003
-1597,712,859,-76,397,917,10003
-1606,770,835,-165,370,834,10003
-1629,784,839,-237,328,710,10003
-1636,757,863,-266,298,601,10003
-1648,697,862,-265,247,508,10003
-1694,645,787,-248,172,426,10003
-1726,592,752,-167,89,369,10003
-1714,527,805,-5,22,317,10003
-1698,545,853,169,-32,291,10003
-1677,686,895,271,-53,257,10003
-1679,804,924,232,-20,206,10003
-1682,840,965,101,41,173,10003
-1689,843,981,-68,127,134,10003
-1700,807,954,-212,184,87,10003
-1694,761,954,-340,233,69,10003
-1723,704,922,-420,254,59,10003
-1746,678,857,-485,245,55,10003
-1760,663,851,-485,226,59,10003
-1778,644,831,-459,185,63,10003
-1798,644,797,-419,140,79,10003
-1797,654,782,-359,111,71,10003
-1799,649,794,-285,70,67,10003
-1787,649,813,-144,33,46,10003
-1774,670,822,-38,1,34,10003
-1773,705,852,24,-4,24,10003
-1751,701,888,49,-21,23,10003
-1739,693,909,79,-18,16,10003
-1742,697,894,85,-19,4,10003
-1754,715,887,50,-25,-1,10003
-1755,728,885,-14,-20,-7,10003
-1768,736,851,-86,-17,-15,10003
-1762,754,853,-149,-16,-32,10003
-1771,729,859,-176,-25,-67,10003
-1764,716,849,-186,-31,-75,10003
-1781,684,870,-148,-39,-83,10003
-1787,666,898,-123,-20,-68,10003
-1809,679,896,-88,-7,-72,10003
-1814,694,872,-80,14,-62,10003
-1827,713,875,-101,47,-46,10003
-1831,715,867,-99,72,-30,10003
-1823,710,854,-81,90,-15,10003
-1825,708,861,-41,100,-21,10003
-1798,711,853,24,108,1,10003
-1789,700,846,88,97,5,10003
-1784,701,861,153,107,-4,10003
-1774,686,866,204,95,0,10003
-1768,686,876,262,85,22,10003
-1773,678,822,293,61,24,10003
-1777,673,821,287,54,31,10003
-1783,695,832,245,30,28,10003
-1773,706,840,135,16,42,10003
-1767,716,851,-7,27,41,10003
-1771,710,871,-112,46,37,10003
-1779,705,862,-183,67,30,10003
-1771,690,870,-235,81,32,10003
-1782,683,859,-229,90,40,10003
-1783,688,863,-227,101,25,10003
-1791,708,854,-213,101,17,10003
-1788,713,857,-197,117,-7,10003
-1788,696,862,-131,107,-3,10003
-1785,676,861,-50,118,-18,10003
-1790,672,870,17,95,-8,10003
-1789,678,860,15,116,8,10003
-1799,695,869,12,120,8,10003
-1804,680,869,-8,127,7,10003
-1805,673,857,-25,133,12,10003
-1813,699,862,-68,132,20,10003
-1798,729,861,-126,150,15,10003
-1788,719,837,-159,148,5,10003
-1780,720,830,-148,146,-14,10003
-1780,692,838,-104,145,-27,10003
-1785,661,846,-37,122,-48,10003
-1787,663,825,6,99,-31,10003
-1795,684,823,27,80,-45,10003
-1797,710,821,25,66,-55,10003
-1788,718,831,8,46,-66,10003
-1797,716,833,-15,49,-83,10003
-1797,707,834,-37,49,-102,10003
-1801,687,829,-51,43,-111,10003
-1806,673,824,-44,32,-111,10003
-1802,657,827,-14,34,-98,10003
-1811,679,843,-21,25,-68,10003
-1801,681,849,-65,21,-59,10003
-1799,695,846,-105,25,-49,10003
-1816,685,844,-112,31,-57,10003
-1812,700,841,-102,33,-48,10003
-1826,691,837,-96,38,-50,10003
-1816,684,827,-123,43,-35,10003
-1825,701,816,-143,41,-36,10003
-1820,693,825,-143,45,-41,10003
-1809,673,823,-131,31,-42,10003
-1807,677,834,-103,33,-28,10003
-1808,680,831,-84,22,-25,10003
-1812,672,841,-66,18,-19,10003
-1820,669,845,-78,15,11,10003
-1820,704,834,-136,29,15,10003
-1823,702,834,-179,42,15,10003
-1817,663,823,-215,40,17,10003
-1822,665,829,-189,53,19,10003
-1829,675,830,-136,40,11,10003
-1816,672,824,-118,38,25,10003
-1819,654,818,-87,29,25,10003
-1821,636,814,-38,12,24,10003
-1826,638,822,2,-12,50,10003
-1816,653,832,0,-23,48,10003
-1814,674,850,-59,-15,70,10003
-1822,699,855,-189,14,93,10003
-1816,682,859,-303,44,93,10003
-1814,676,866,-343,72,68,10003
-1805,662,850,-291,67,61,10003
-1806,657,849,-206,63,37,10003
-1804,667,831,-135,46,38,10003
-1799,684,814,-109,38,44,10003
-1800,689,810,-80,21,39,10003
-1785,679,815,-65,14,27,10003
-1794,684,820,-39,19,8,10003
-1792,702,831,-43,3,-5,10003
-1802,695,827,-64,-1,-28,10003
-1809,669,810,-96,3,-35,10003
-1806,653,818,-107,6,-55,10003
-1812,633,836,-129,5,-43,10003
-1807,628,832,-149,17,-41,10003
-1811,630,840,-160,3,-38,10003
-1803,645,847,-167,2,-34,10003
-1811,650,842,-166,15,-33,10003
-1804,645,844,-142,24,-40,10003
-1809,643,833,-114,33,-47,10003
-1810,662,837,-89,40,-48,10003
-1821,664,836,-81,32,-56,10003
-1815,669,853,-71,32,-61,10003
-1809,665,840,-56,27,-67,10003
-1801,657,865,-68,33,-66,10003
-1805,660,861,-91,30,-60,10003
-1822,656,854,-104,40,-60,10003
-1830,650,851,-131,52,-52,10003
-1841,651,836,-141,45,-52,10003
-1841,644,834,-126,39,-44,10003
-1843,641,844,-94,34,-38,10003
-1832,638,846,-85,24,-26,10003
-1828,644,852,-64,18,-18,10003
-1823,633,850,-89,17,25,10003
-1832,648,851,-63,2,14,10003
-1820,650,851,-66,-1,7,10003
-1819,648,834,-55,-11,-4,10003
-1824,653,839,-71,-12,-4,10003
-1827,659,835,-76,-21,10,10003
-1830,655,836,-85,-13,3,10003
-1826,646,832,-102,-20,3,10003
-1815,653,829,-124,-25,8,10003
-1823,651,843,-119,-18,1,10003
-1816,639,840,-122,-26,3,10003
-1817,638,850,-101,-21,-8,10003
-1811,643,835,-90,-25,0,10003
-1804,639,834,-85,-30,2,10003
-1803,640,829,-84,-26,4,10003
-1810,631,845,-83,-39,-10,10003
-1802,636,834,-90,-32,-13,10003
-1806,634,823,-73,-31,-25,10003
-1820,628,839,-82,-25,-17,10003
-1819,658,821,-76,-36,-48,10003
-1807,671,819,-96,-31,-48,10003
-1802,649,829,-123,-20,-45,10003
-1809,626,838,-119,-22,-57,10003
-1815,642,846,-104,-27,-73,10003
-1809,636,856,-99,-22,-71,10003
-1799,627,853,-107,-13,-73,10003
-1816,625,851,-91,-21,-81,10003
-1807,624,837,-84,-22,-105,10003
-1799,621,836,-74,-26,-106,10003
-1800,625,845,-92,-19,-112,10003
-1805,643,853,-79,-18,-130,10003
-1806,630,871,-86,-15,-121,10003
-1821,607,862,-84,-24,-131,10003
-1819,627,828,-46,-42,-138,10003
-1816,620,845,-25,-57,-131,10003
-1815,614,833,-22,-63,-137,10003
-1820,627,842,-14,-82,-150,10003
-1810,623,862,-14,-77,-152,10003
-1816,628,863,-18,-84,-147,10003
-1827,628,883,-19,-86,-155,10003
-1826,609,870,-52,-65,-137,10003
-1842,615,868,-65,-51,-132,10003
-1865,630,869,-76,-57,-119,10003
-1851,622,856,-65,-52,-129,10003
-1840,614,856,-54,-55,-126,10003
-1837,611,861,-27,-50,-120,10003
-1823,614,854,-33,-54,-111,10003
-1842,619,852,-13,-46,-122,10003
-1834,613,864,-29,-48,-112,10003
-1836,615,854,-49,-43,-113,10003
-1851,608,864,-64,-41,-111,10003
-1839,592,877,-45,-36,-105,10003
-1815,576,877,-40,-34,-96,10003
-1828,575,877,-34,-36,-96,10003
-1831,584,876,-46,-29,-85,10003
-1828,596,866,-58,-23,-82,10003
-1817,598,862,-77,-20,-81,10003
-1816,587,861,-72,-36,-99,10003
-1828,586,844,-56,-51,-90,10003
-1825,591,854,-69,-60,-98,10003
-1817,588,862,-89,-66,-94,10003
-1816,585,844,-125,-74,-104,10003
-1819,571,848,-153,-90,-105,10003
-1808,556,843,-170,-99,-126,10003
-1807,565,863,-138,-107,-138,10003
-1813,549,867,-126,-111,-132,10003
-1811,547,880,-119,-110,-134,10003
-1820,561,870,-121,-90,-142,10003
-1821,575,896,-124,-86,-148,10003
-1829,569,891,-146,-82,-147,10003
-1828,558,874,-166,-75,-143,10003
-1819,549,890,-178,-63,-145,10003
-1816,556,879,-192,-69,-147,10003
-1823,570,865,-216,-75,-163,10003
-1822,581,880,-218,-67,-180,10003
-1835,583,889,-227,-65,-185,10003
-1848,587,903,-202,-55,-203,10003
-1854,563,902,-181,-62,-215,10003
-1846,550,915,-153,-51,-205,10003
-1859,551,883,-123,-69,-186,10003
-1866,549,890,-116,-82,-183,10003
-1860,554,881,-154,-83,-151,10003
-1856,559,902,-198,-73,-151,10003
-1844,537,906,-217,-73,-143,10003
-1848,524,894,-208,-65,-133,10003
-1856,518,905,-158,-70,-125,10003
-1859,505,927,-115,-66,-131,10003
-1843,496,907,-75,-57,-123,10003
-1838,504,890,-66,-54,-105,10003
-1840,496,905,-70,-46,-103,10003
-1843,504,914,-75,-43,-96,10003
-1858,523,917,-110,-41,-76,10003
-1854,522,913,-145,-43,-76,10003
-1834,515,910,-190,-38,-63,10003
-1829,507,897,-180,-43,-78,10003
-1822,508,892,-132,-49,-96,10003
-1832,501,895,-57,-59,-110,10003
-1830,509,886,15,-62,-122,10003
-1825,505,906,46,-55,-130,10003
-1819,505,909,61,-61,-139,10003
-1817,500,917,71,-68,-129,10003
-1827,488,932,95,-63,-127,10003
-1835,482,928,50,-54,-111,10003
-1830,488,925,3,-48,-110,10003
-1842,494,910,-45,-48,-107,10003
-1828,484,927,-73,-56,-108,10003
-1819,478,892,-80,-57,-114,10003
-1813,462,912,-71,-62,-105,10003
-1809,448,881,-25,-100,-114,10003
-1799,458,887,19,-132,-131,10003
-1798,465,866,63,-169,-150,10003
-1776,470,875,100,-209,-174,10003
-1781,477,874,98,-252,-194,10003
-1757,475,871,94,-285,-227,10003
-1736,476,861,76,-325,-267,10003
-1724,482,842,32,-379,-312,10003
-1718,466,819,-68,-422,-363,10003
-1696,468,811,-175,-477,-417,10003
-1690,449,796,-305,-560,-476,10003
-1667,432,761,-457,-653,-551,10003
-1649,441,757,-687,-784,-592,10003
-1644,459,736,-988,-907,-632,10003
-1639,488,715,-1317,-1015,-692,10003
-1632,432,733,-1609,-1118,-803,10003
-1611,360,754,-1804,-1242,-901,10003
-1582,285,772,-1876,-1333,-1041,10003
-1546,180,839,-1777,-1379,-1189,10003
-1553,107,904,-1598,-1480,-1319,10003
-1526,140,951,-1459,-1562,-1418,10003
-1450,174,1021,-1412,-1628,-1593,10003
-1436,226,1007,-1485,-1691,-1764,10003
-1433,271,1004,-1563,-1748,-1979,10003
-1407,254,991,-1694,-1815,-2199,10003
-1397,256,988,-1841,-1895,-2400,10003
-1415,278,956,-1986,-1990,-2613,10003
-1424,256,935,-2210,-2082,-2808,10003
-1428,165,910,-2403,-2209,-3006,10003
-1420,45,937,-2534,-2346,-3166,10003
-1422,-16,1002,-2702,-2529,-3273,10003
-1400,-4,1050,-2922,-2712,-3443,10003
-1403,4,1077,-3175,-2878,-3642,10003
-1383,-27,1101,-3367,-3068,-3836,10003
-1319,-116,1117,-3491,-3235,-4059,10003
-1279,-175,1147,-3455,-3404,-4305,10003
-1247,-228,1217,-3304,-3611,-4582,10003
-1158,-320,1291,-3099,-3777,-4838,10003
-1107,-380,1353,-3027,-3921,-5012,10003
-1067,-420,1366,-2944,-3990,-5194,10003
-1051,-444,1356,-2838,-4040,-5386,10003
-1029,-513,1339,-2593,-4094,-5598,10003
-956,-633,1356,-2269,-4177,-5772,10003
-879,-642,1353,-1915,-4248,-5944,10003
-806,-647,1458,-1513,-4323,-6132,10003
-666,-863,1641,-1178,-4373,-6186,10003
-537,-1142,1741,-1035,-4338,-6156,10003
-538,-1172,1865,-796,-4296,-6172,10003
-574,-1179,1976,-609,-4232,-6132,10003
-585,-1171,1945,-806,-4173,-5982,10003
-672,-926,1834,-1259,-4071,-5979,10003
-753,-545,1650,-1850,-4022,-6050,10003
-716,-294,1435,-2467,-3991,-6301,10003
-582,-164,1295,-3028,-3976,-6612,10003
-290,-330,1367,-3243,-3871,-6876,10003
-29,-891,1457,-3265,-3685,-6829,10003
126,-1518,1572,-2960,-3520,-6664,10003
156,-2031,1704,-2118,-3408,-6431,10003
98,-2425,1730,-1160,-3395,-6127,10003
-40,-2390,1714,-188,-3531,-5931,10003
-207,-1924,1592,483,-3820,-5929,10003
-213,-1356,1500,899,-4064,-5973,10003
-19,-1082,1478,1000,-4182,-5987,10003
232,-1210,1553,793,-4165,-5851,10003
462,-1415,1699,544,-4090,-5550,10003
596,-1599,1735,227,-3989,-5163,10003
632,-1559,1714,-185,-3940,-4844,10003
620,-1380,1661,-694,-3868,-4641,10003
607,-1169,1569,-1460,-3790,-4538,10003
605,-1013,1478,-2335,-3730,-4545,10003
636,-900,1333,-3220,-3694,-4621,10003
724,-870,1284,-4044,-3618,-4717,10003
906,-1102,1430,-4517,-3332,-4740,10003
1153,-1701,1593,-4835,-2956,-4486,10003
1309,-1836,1569,-6104,-2626,-3944,10003
1339,-1309,1448,-8364,-2255,-3506,10003
1432,-1212,1467,-10420,-1322,-3292,10003
1533,-2006,1495,-11429,-275,-3569,10003
1489,-2758,1505,-10658,423,-3794,10003
1098,-2939,1383,-8641,475,-3872,10003
916,-2462,1201,-6963,430,-3812,10003
818,-1938,1013,-5756,452,-3942,10003
897,-1719,856,-4978,497,-3953,10003
1022,-1805,754,-4124,613,-4124,10003
1067,-1907,738,-3213,522,-4115,10003
1148,-1967,751,-2296,493,-4059,10003
1225,-2021,740,-1554,326,-3995,10003
1329,-2090,733,-1139,180,-3836,10003
1426,-2050,730,-783,-3,-3749,10003
1507,-1948,732,-391,-130,-3708,10003
1516,-1795,716,26,-273,-3683,10003
1492,-1586,681,421,-460,-3706,10003
1466,-1349,627,698,-670,-3723,10003
1514,-1103,571,824,-858,-3780,10003
1560,-936,526,792,-1027,-3856,10003
1634,-816,533,645,-1150,-3955,10003
1675,-752,536,402,-1238,-4067,10003
1723,-716,535,32,-1323,-4156,10003
1783,-757,528,-337,-1386,-4205,10003
1880,-845,546,-683,-1418,-4245,10003
1970,-972,564,-904,-1418,-4261,10003
2080,-1096,576,-1013,-1416,-4226,10003
2160,-1193,596,-1061,-1387,-4134,10003
2230,-1244,585,-1061,-1352,-4010,10003
2281,-1288,584,-1045,-1279,-3827,10003
2307,-1314,566,-1002,-1198,-3607,10003
2299,-1316,538,-916,-1102,-3338,10003
2268,-1273,528,-774,-1015,-3033,10003
2228,-1223,525,-614,-942,-2699,10003
2208,-1162,523,-422,-884,-2327,10003
2193,-1102,468,-190,-799,-1951,10003
2154,-1014,509,6,-729,-1534,10003
2124,-936,493,207,-690,-1131,10003
2094,-883,472,370,-636,-769,10003
2087,-813,480,498,-577,-408,10003
2071,-756,504,639,-508,-94,10003
2047,-721,530,692,-406,196,10003
2017,-694,521,669,-313,440,10003
1994,-686,504,586,-216,641,10003
1972,-697,465,483,-138,802,10003
1945,-705,458,356,-60,936,10003
1914,-711,448,201,-12,1022,10003
1896,-716,432,30,40,1077,10003
1885,-717,423,-152,86,1097,10003
1861,-754,424,-312,121,1105,10003
1846,-768,420,-462,128,1069,10003
1830,-785,420,-586,154,1032,10003
1816,-807,431,-675,159,969,10003
1810,-830,448,-712,150,906,10003
1810,-837,442,-726,133,822,10003
1804,-858,438,-702,120,740,10003
1804,-860,424,-639,90,648,10003
1793,-857,429,-543,65,557,10003
1792,-849,425,-427,16,479,10003
1776,-846,410,-284,-38,404,10003
1782,-834,403,-115,-90,321,10003
1778,-827,402,52,-133,240,10003
1785,-804,393,230,-192,180,10003
1807,-800,394,392,-234,109,10003
1812,-774,388,534,-266,60,10003
1814,-745,382,632,-277,16,10003
1830,-726,378,656,-301,-22,10003
1843,-715,379,616,-301,-56,10003
1849,-700,375,559,-292,-76,10003
1861,-701,364,454,-277,-104,10003
1867,-688,369,329,-244,-115,10003
1876,-672,373,186,-230,-116,10003
1876,-662,385,8,-193,-130,10003
1874,-669,377,-165,-156,-141,10003
1871,-667,384,-326,-133,-144,10003
1890,-694,382,-479,-91,-138,10003
1884,-690,367,-593,-64,-139,10003
1863,-717,377,-705,-39,-142,10003
1849,-748,383,-761,-41,-143,10003
1836,-780,370,-757,-48,-146,10003
1865,-771,363,-723,-48,-161,10003
1844,-775,364,-698,-55,-161,10003
1834,-799,365,-638,-74,-161,10003
1823,-821,357,-553,-113,-173,10003
1836,-810,353,-463,-132,-183,10003
1850,-796,351,-402,-147,-187,10003
1848,-809,354,-354,-136,-187,10003
1850,-801,350,-304,-139,-219,10003
1839,-798,367,-261,-134,-216,10003
1846,-787,372,-239,-120,-218,10003
1840,-789,373,-236,-112,-223,10003
1856,-784,383,-249,-109,-212,10003
1846,-773,357,-277,-93,-226,10003
1852,-786,358,-308,-83,-225,10003
1851,-783,366,-324,-70,-217,10003
1857,-794,363,-339,-66,-223,10003
1858,-810,371,-339,-46,-228,10003
1859,-806,368,-330,-61,-209,10003
1855,-817,356,-304,-54,-205,10003
1853,-811,354,-268,-49,-181,10003
1857,-817,344,-239,-51,-162,10003
1863,-812,364,-208,-47,-144,10003
1857,-800,340,-191,-37,-131,10003
1867,-821,342,-170,-53,-112,10003
1880,-814,344,-155,-52,-94,10003
1891,-809,349,-148,-37,-71,10003
1895,-814,343,-140,-47,-60,10003
1893,-807,343,-122,-41,-59,10003
1888,-806,359,-117,-44,-46,10003
1885,-812,355,-110,-28,-30,10003
1880,-810,356,-89,-37,-29,10003
1871,-813,356,-58,-27,-17,10003
1876,-816,352,-11,-25,-16,10003
1863,-814,353,40,-27,-6,10003
1859,-809,329,93,-23,3,10003
1867,-805,355,130,-22,21,10003
1860,-787,350,173,-17,24,10003
1872,-789,349,194,-25,37,10003
1875,-769,341,208,-15,38,10003
1881,-768,349,217,-6,38,10003
1881,-757,342,209,-6,48,10003
1873,-753,348,222,-3,48,10003
1882,-752,340,224,12,44,10003
1868,-740,334,212,22,44,10003
1863,-729,329,207,30,54,10003
1862,-724,337,168,40,41,10003
1858,-723,321,147,48,46,10003
1868,-739,322,137,46,55,10003
1854,-728,323,122,45,56,10003
1860,-718,301,108,39,61,10003
1868,-730,309,97,41,70,10003
1875,-730,312,90,33,66,10003
1879,-724,303,79,21,79,10003
1877,-723,323,88,23,63,10003
1876,-720,309,84,28,67,10003
1871,-710,308,66,20,60,10003
1869,-710,304,39,19,54,10003
1876,-702,303,8,14,46,10003
1883,-705,306,-35,12,39,10003
1887,-703,315,-69,11,29,10003
1875,-711,308,-96,9,14,10003
1886,-722,324,-113,13,-9,10003
1877,-715,320,-130,-3,-14,10003
1877,-717,328,-147,-4,-18,10003
1873,-732,327,-145,-4,-38,10003
1866,-731,332,-153,-8,-44,10003
1864,-739,338,-148,-10,-60,10003
1869,-738,351,-152,-18,-58,10003
1881,-746,348,-152,-29,-69,10003
1876,-740,352,-157,-19,-72,10003
1883,-753,355,-163,-14,-61,10003
1886,-758,358,-170,-16,-72,10003
1872,-771,363,-172,-16,-79,10003
1883,-767,356,-166,-4,-63,10003
1877,-778,365,-161,-9,-71,10003
1886,-783,360,-127,-9,-76,10003
1876,-791,354,-98,-8,-50,10003
1869,-795,356,-58,-3,-48,10003
1864,-784,365,-27,-12,-42,10003
1857,-787,361,17,-8,-33,10003
1861,-786,351,41,-18,-20,10003
1868,-786,356,84,-18,-16,10003
1871,-789,364,108,-18,-14,10003
1874,-779,366,127,-13,-4,10003
1873,-777,367,135,-11,3,10003
1873,-769,363,138,-8,-1,10003
1868,-765,356,151,2,-5,10003
1863,-768,345,147,3,-14,10003
1862,-769,351,165,10,-8,10003
1860,-764,344,165,2,-9,10003
1864,-760,338,173,-1,-13,10003
1866,-758,346,182,-10,-4,10003
1880,-760,337,201,-1,-2,10003
1870,-762,345,202,-10,-3,10003
1874,-758,343,215,-8,-4,10003
1870,-747,327,219,-24,0,10003
1880,-749,334,223,-23,-10,10003
1869,-747,339,228,-18,-7,10003
1873,-754,344,220,-19,4,10003
1872,-736,359,228,-20,4,10003
1870,-739,330,226,-18,-2,10003
1870,-734,336,200,-13,8,10003
1880,-738,335,185,-18,6,10003
1879,-736,333,172,-3,11,10003
1868,-728,327,153,-8,19,10003
1878,-735,329,146,-2,31,10003
1877,-740,339,134,0,26,10003
1875,-727,344,131,-5,29,10003
1864,-733,333,125,-4,36,10003
1860,-731,327,110,-4,45,10003
1873,-731,338,97,-15,49,10003
1880,-725,322,91,-13,51,10003
1872,-734,326,78,-16,65,10003
1878,-725,329,76,-16,60,10003
1879,-725,318,74,-17,56,10003
1865,-724,338,75,-31,35,10003
1868,-728,332,81,-33,41,10003
1868,-727,331,87,-31,43,10003
1867,-720,355,88,-32,32,10003
1869,-710,343,84,-42,33,10003
1869,-705,350,75,-43,23,10003
1871,-701,342,57,-39,16,10003
1876,-707,339,33,-35,21,10003
1872,-699,339,3,-30,21,10003
1879,-707,345,-15,-29,14,10003
1885,-713,364,-39,-30,20,10003
1888,-710,349,-48,-21,17,10003
1901,-720,345,-56,-13,12,10003
1891,-726,343,-53,-19,2,10003
1897,-736,350,-36,-23,6,10003
1885,-719,355,-33,-25,6,10003
1890,-723,350,-42,-18,-2,10003
1884,-721,373,-40,-16,-8,10003
1878,-714,363,-44,-6,-6,10003
1871,-727,376,-55,-5,10,10003
1882,-736,354,-57,-4,5,10003
1874,-729,365,-60,0,5,10003
1882,-735,367,-70,6,11,10003
1887,-731,377,-63,20,-2,10003
1885,-736,369,-71,30,-2,10003
1881,-742,388,-80,27,-2,10003
1887,-735,393,-83,50,-6,10003
1894,-754,414,-93,76,7,10003
1900,-771,419,-97,112,32,10003
1905,-751,420,-120,150,50,10003
1903,-732,407,-177,198,83,10003
1895,-770,419,-205,235,127,10003
1900,-801,442,-218,284,190,10003
1922,-820,496,-266,368,263,10003
1937,-846,509,-293,465,351,10003
1945,-883,517,-395,559,482,10003
1948,-896,513,-540,668,626,10003
1950,-900,523,-694,758,771,10003
1952,-927,529,-860,825,944,10003
1956,-960,579,-969,917,1112,10003
1958,-982,580,-1054,1011,1271,10003
1940,-999,602,-1157,1097,1421,10003
1940,-1023,607,-1259,1178,1593,10003
1929,-1062,616,-1356,1251,1756,10003
1921,-1117,631,-1419,1343,1919,10003
1917,-1208,647,-1436,1393,2090,10003
1905,-1311,652,-1362,1456,2300,10003
1909,-1445,641,-1229,1466,2521,10003
1914,-1549,664,-1049,1500,2761,10003
1924,-1610,703,-833,1550,3019,10003
1934,-1606,739,-661,1613,3252,10003
1919,-1588,733,-519,1704,3446,10003
1896,-1627,744,-422,1790,3662,10003
1877,-1672,721,-348,1875,3871,10003
1843,-1714,735,-263,1964,4066,10003
1828,-1798,760,-124,2055,4240,10003
1796,-1858,788,58,2160,4392,10003
1757,-1922,772,211,2267,4564,10003
1731,-2014,752,328,2347,4769,10003
1720,-2121,749,443,2426,5022,10003
1701,-2218,735,561,2463,5288,10003
1708,-2275,749,707,2511,5551,10003
1694,-2303,756,807,2551,5818,10003
1657,-2342,778,868,2599,6110,10003
1668,-2428,819,989,2673,6415,10003
1682,-2572,855,1242,2762,6712,10003
1687,-2658,913,1627,2879,6978,10003
1648,-2669,939,2037,3008,7224,10003
1591,-2635,1004,2383,3163,7485,10003
1505,-2576,1024,2598,3328,7742,10003
1425,-2531,1032,2857,3506,7978,10003
1334,-2452,1057,3099,3649,8147,10003
1214,-2313,1064,3279,3807,8310,10003
1116,-2169,1090,3397,3961,8479,10003
1009,-2023,1096,3401,4076,8596,10003
885,-1877,1074,3350,4182,8713,10003
799,-1882,1071,3314,4297,8857,10003
731,-1979,1074,3255,4357,9014,10003
662,-1898,1084,3207,4395,9139,10003
518,-1641,1096,3183,4405,9141,10003
375,-1506,1133,3240,4504,9094,10003
231,-1516,1144,3219,4459,9062,10003
176,-1446,1152,3289,4444,9015,10003
111,-1377,1177,3463,4483,8896,10003
26,-1310,1170,3614,4522,8776,10003
-124,-1178,1200,3736,4581,8681,10003
-249,-1028,1204,3617,4594,8601,10003
-369,-884,1235,3445,4604,8414,10003
-445,-809,1187,3038,4567,8222,10003
-509,-823,1232,2651,4617,8073,10003
-605,-883,1198,2235,4570,7962,10003
-666,-950,1263,2069,4539,7887,10003
-738,-993,1215,1780,4432,7830,10003
-784,-850,1143,1600,4366,7749,10003
-928,-667,1005,1277,4230,7673,10003
-994,-583,859,865,4105,7607,10003
-1052,-513,821,613,4031,7462,10003
-1112,-517,749,369,3845,7393,10003
-1149,-412,664,238,3661,7306,10003
-1154,-431,661,199,3517,7190,10003
-1183,-439,662,211,3365,7091,10003
-1230,-412,609,368,3192,6989,10003
-1269,-295,591,715,3029,6787,10003
-1313,-247,577,1155,2866,6582,10003
-1326,-168,536,1692,2686,6357,10003
-1350,-45,509,2278,2544,6070,10003
-1360,90,459,2721,2421,5789,10003
-1359,237,441,3173,2306,5490,10003
-1383,320,433,3553,2226,5205,10003
-1380,339,400,3749,2141,4964,10003
-1431,454,332,3802,2033,4646,10003
-1493,610,296,3674,1908,4312,10003
-1500,701,280,3338,1748,4029,10003
-1474,796,272,2911,1627,3756,10003
-1468,878,269,2436,1424,3512,10003
-1469,947,289,1959,1207,3230,10003
-1471,986,317,1505,977,2925,10003
-1441,1028,368,1095,743,2628,10003
-1434,1065,407,722,499,2342,10003
-1467,1130,426,350,294,2053,10003
-1517,1190,461,-46,94,1772,10003
-1552,1194,494,-437,-77,1515,10003
-1589,1191,519,-747,-178,1272,10003
-1603,1090,605,-956,-244,1040,10003
-1650,1003,681,-980,-278,819,10003
-1662,961,740,-968,-313,690,10003
-1664,885,800,-941,-287,572,10003
-1679,810,824,-860,-236,449,10003
-1678,745,830,-774,-171,383,10003
-1710,699,813,-652,-91,328,10003
-1744,630,852,-398,-7,274,10003
-1722,504,916,-104,58,292,10003
-1711,549,965,46,163,321,10003
-1756,653,964,-7,274,395,10003
-1772,704,885,-187,353,432,10003
-1791,692,759,-180,381,362,10003
-1804,751,679,-39,339,331,10003
-1778,870,595,56,295,310,10003
-1780,919,565,96,242,275,10003
-1793,919,541,128,197,223,10003
-1803,898,543,199,108,162,10003
-1801,853,595,326,51,132,10003
-1790,836,605,430,6,102,10003
-1794,847,616,461,-8,100,10003
-1790,867,631,445,-14,107,10003
-1783,852,634,414,-16,102,10003
-1786,835,624,352,-8,112,10003
-1792,847,619,266,10,121,10003
-1795,855,566,163,8,130,10003
-1819,867,558,107,18,108,10003
-1792,857,575,84,9,87,10003
-1782,851,582,57,5,69,10003
-1774,842,618,40,25,47,10003
-1762,810,629,0,33,37,10003
-1767,826,604,-17,53,31,10003
-1784,833,617,-41,59,16,10003
-1786,820,611,-59,68,40,10003
-1800,846,606,-64,79,32,10003
-1813,866,616,-73,88,19,10003
-1805,865,604,-92,87,30,10003
-1823,866,593,-93,77,27,10003
-1824,877,573,-96,57,27,10003
-1823,843,592,-75,39,21,10003
-1818,819,618,-1,17,13,10003
-1826,838,634,78,18,22,10003
-1829,859,641,99,19,41,10003
-1848,878,636,113,28,44,10003
-1858,886,633,115,32,62,10003
-1848,894,623,96,43,86,10003
-1845,913,602,78,31,99,10003
-1831,929,576,54,20,99,10003
-1828,948,573,32,7,105,10003
-1838,951,551,19,-19,109,10003
-1828,936,564,15,-37,112,10003
-1809,893,547,29,-65,116,10003
-1805,853,556,32,-78,123,10003
-1802,828,574,30,-82,123,10003
-1808,832,585,59,-97,94,10003
-1797,841,607,84,-91,101,10003
-1795,853,600,51,-78,118,10003
-1808,863,600,-16,-46,121,10003
-1801,859,616,-61,-25,126,10003
-1787,837,607,-85,1,120,10003
-1783,856,619,-76,22,115,10003
-1789,878,613,-95,48,106,10003
-1788,894,596,-114,69,98,10003
-1786,883,597,-133,91,70,10003
-1795,883,595,-128,98,66,10003
-1803,888,594,-135,104,57,10003
-1787,870,588,-132,96,46,10003
-1796,865,600,-95,87,37,10003
-1795,871,593,-55,74,27,10003
-1799,878,591,-53,54,35,10003
-1797,890,590,-61,45,26,10003
-1802,877,579,-47,22,30,10003
-1801,873,583,-29,19,39,10003
-1802,873,610,-9,6,44,10003
-1810,870,627,4,5,49,10003
-1801,878,620,7,16,51,10003
-1808,872,627,14,20,58,10003
-1815,874,632,29,23,57,10003
-1811,881,614,42,27,50,10003
-1810,891,602,68,20,43,10003
-1806,878,607,94,12,30,10003
-1801,863,590,119,-13,33,10003
-1796,871,604,138,-6,35,10003
-1802,864,616,154,-10,41,10003
-1795,863,601,132,-8,31,10003
-1787,853,603,143,11,22,10003
-1797,834,605,156,12,29,10003
-1808,848,583,163,8,33,10003
-1812,850,581,150,-1,32,10003
-1812,854,574,138,15,33,10003
-1814,848,585,131,8,22,10003
-1804,870,583,157,8,14,10003
-1805,877,593,187,-2,-2,10003
-1798,887,601,203,2,-20,10003
-1796,888,594,227,7,-22,10003
-1810,881,616,203,15,-29,10003
-1809,881,602,181,31,-37,10003
-1815,873,598,153,32,-18,10003
-1804,886,599,134,38,-9,10003
-1792,886,607,106,39,-15,10003
-1784,888,598,99,38,-11,10003
-1786,899,574,118,23,-26,10003
-1790,919,576,115,9,-35,10003
-1796,925,566,136,-4,-53,10003
-1799,920,558,146,-22,-56,10003
-1798,915,577,147,-38,-60,10003
-1811,882,576,140,-46,-47,10003
-1817,873,581,123,-45,-46,10003
-1827,885,608,124,-51,-52,10003
-1817,865,605,107,-53,-19,10003
-1814,870,615,116,-43,-9,10003
-1812,873,610,131,-44,-19,10003
-1798,872,591,148,-53,-10,10003
-1791,888,582,157,-53,-4,10003
-1794,917,563,161,-53,-15,10003
-1792,923,541,158,-71,-28,10003
-1781,900,564,173,-78,-49,10003
-1785,877,560,188,-88,-50,10003
-1795,873,542,192,-84,-66,10003
-1803,877,556,173,-85,-63,10003
-1805,882,549,144,-59,-84,10003
-1810,879,570,87,-45,-66,10003
-1804,859,568,67,-34,-65,10003
-1813,851,557,87,-26,-60,10003
-1815,871,554,115,-28,-54,10003
-1808,873,565,119,-24,-40,10003
-1812,896,568,106,-15,-40,10003
-1815,909,572,92,-12,-31,10003
-1816,904,558,78,-7,-53,10003
-1810,912,573,72,-16,-60,10003
-1814,910,559,67,-19,-59,10003
-1806,899,565,71,-27,-53,10003
-1798,887,580,93,-40,-51,10003
-1807,869,592,131,-47,-47,10003
-1823,870,586,136,-52,-21,10003
-1823,870,585,158,-44,-10,10003
-1826,877,573,150,-59,-1,10003
-1824,884,583,159,-57,10,10003
-1831,874,602,159,-49,21,10003
-1831,863,603,173,-33,35,10003
-1840,859,602,202,-27,43,10003
-1845,861,600,243,-26,46,10003
-1854,884,581,282,-15,69,10003
-1852,902,600,303,-17,94,10003
-1841,920,565,313,-18,100,10003
-1823,919,563,311,-8,105,10003
-1824,908,567,356,-11,112,10003
-1819,901,560,374,-7,116,10003
-1831,922,590,393,-15,131,10003
-1829,940,589,370,-1,142,10003
-1838,942,615,358,21,131,10003
-1837,934,614,339,39,143,10003
-1840,929,608,324,68,123,10003
-1836,928,606,336,87,124,10003
-1821,908,600,337,143,135,10003
-1839,905,595,385,150,138,10003
-1819,944,581,422,180,126,10003
-1793,972,558,443,187,103,10003
-1770,946,548,465,204,83,10003
-1777,916,507,542,189,70,10003
-1758,892,474,583,156,50,10003
-1781,860,477,646,131,74,10003
-1813,855,476,703,104,55,10003
-1790,877,440,711,64,30,10003
-1779,904,439,610,54,21,10003
-1789,908,424,470,59,35,10003
-1796,887,435,371,42,33,10003
-1799,897,447,288,25,46,10003
-1790,920,422,179,21,67,10003
-1797,912,443,73,6,58,10003
-1800,887,428,49,-12,49,10003
-1819,876,424,115,-39,29,10003
-1822,885,449,179,-61,23,10003
-1814,902,460,171,-54,27,10003
-1817,909,464,126,-38,25,10003
-1833,926,478,61,-18,18,10003
-1814,958,473,1,6,6,10003
-1814,975,460,-111,39,6,10003
-1812,955,446,-171,45,-4,10003
-1822,919,449,-184,32,5,10003
-1802,882,464,-129,21,-6,10003
-1777,871,488,-56,4,4,10003
-1773,903,495,-16,0,31,10003
-1787,941,512,-70,-5,47,10003
-1782,970,502,-100,5,54,10003
-1787,904,487,-84,22,49,10003
-1784,885,487,-5,26,46,10003
-1781,918,485,3,25,55,10003
-1780,946,449,-49,25,63,10003
-1768,950,467,-58,10,41,10003
-1762,919,455,-58,-7,44,10003
-1771,909,461,-25,-7,42,10003
-1749,912,505,20,-21,57,10003
-1785,913,497,17,-16,112,10003
-1842,908,491,-24,-17,117,10003
-1836,939,507,7,-26,72,10003
-1815,979,525,-27,-14,54,10003
-1820,987,512,-119,9,61,10003
-1827,968,520,-195,-1,84,10003
-1819,985,506,-237,-2,72,10003
-1802,975,503,-223,12,45,10003
-1793,932,494,-195,5,41,10003
-1815,909,498,-128,4,48,10003
-1802,892,498,-46,-9,71,10003
-1807,900,521,-19,-4,87,10003
-1833,918,506,-9,-20,89,10003
-1830,930,493,-24,-33,112,10003
-1834,925,476,-14,-54,110,10003
-1829,922,475,8,-62,116,10003
-1815,923,475,37,-81,136,10003
-1801,942,478,35,-77,128,10003
-1802,950,503,35,-85,124,10003
-1781,927,510,27,-77,124,10003
-1778,909,530,76,-75,125,10003
-1784,912,512,87,-79,107,10003
-1782,932,517,108,-83,84,10003
-1786,940,492,89,-96,75,10003
-1776,986,485,54,-82,59,10003
-1781,988,480,-2,-79,51,10003
-1778,973,478,-16,-82,25,10003
-1769,948,497,-14,-89,17,10003
-1780,956,493,17,-95,13,10003
-1764,957,495,46,-117,-12,10003
-1752,913,508,74,-132,-22,10003
-1773,897,495,91,-116,-6,10003
-1794,946,528,91,-113,-20,10003
-1793,986,489,78,-105,-47,10003
-1791,979,502,35,-72,-42,10003
-1794,931,526,60,-26,-45,10003
-1796,912,563,142,-12,-33,10003
-1804,966,541,148,-18,-17,10003
-1794,1004,495,69,14,-10,10003
-1803,986,484,-2,13,-26,10003
-1807,979,473,-56,0,-20,10003
-1801,981,454,-107,-12,-38,10003
-1797,974,444,-145,-36,-41,10003
-1787,932,450,-155,-63,-37,10003
-1767,909,490,-116,-69,-63,10003
-1748,908,486,-70,-86,-68,10003
-1734,920,529,-48,-93,-70,10003
-1729,919,524,-21,-89,-95,10003
-1716,918,541,27,-99,-148,10003
-1743,912,505,33,-116,-139,10003
-1755,909,478,45,-121,-194,10003
-1774,907,451,75,-121,-216,10003
-1756,913,477,85,-147,-235,10003
-1742,921,471,55,-147,-267,10003
-1733,949,505,20,-136,-321,10003
-1711,945,508,-37,-128,-341,10003
-1705,934,512,-120,-121,-368,10003
-1694,959,505,-180,-140,-431,10003
-1712,979,451,-248,-180,-488,10003
-1634,928,517,-285,-192,-538,10003
-1620,893,570,-346,-173,-547,10003
-1642,844,566,-309,-209,-595,10003
-1633,801,565,-273,-304,-690,10003
-1599,826,551,-215,-410,-818,10003
-1590,861,538,-226,-509,-961,10003
-1588,898,520,-226,-647,-1133,10003
-1596,897,503,-198,-776,-1315,10003
-1589,876,526,-144,-902,-1508,10003
-1574,855,522,-67,-1034,-1709,10003
-1564,829,513,-15,-1143,-1879,10003
-1548,810,497,-25,-1274,-2064,10003
-1521,794,510,-93,-1397,-2251,10003
-1504,797,482,-217,-1541,-2434,10003
-1454,781,446,-431,-1691,-2642,10003
-1449,755,418,-641,-1827,-2872,10003
-1494,750,425,-828,-1997,-3121,10003
-1525,760,433,-977,-2158,-3391,10003
-1549,738,502,-1051,-2310,-3662,10003
-1547,652,571,-1103,-2466,-3912,10003
-1533,550,599,-1103,-2626,-4137,10003
-1526,477,628,-1120,-2786,-4332,10003
-1523,443,624,-1180,-2978,-4525,10003
-1498,401,645,-1304,-3170,-4690,10003
-1470,379,636,-1480,-3373,-4864,10003
-1458,355,639,-1679,-3571,-5054,10003
-1452,360,668,-1855,-3757,-5265,10003
-1448,327,694,-2038,-3901,-5500,10003
-1423,234,798,-2116,-4030,-5689,10003
-1357,91,886,-2244,-4153,-5835,10003
-1332,-14,906,-2365,-4242,-5966,10003
-1322,-63,917,-2538,-4331,-6085,10003
-1313,-83,932,-2740,-4428,-6230,10003
-1263,-108,904,-2990,-4562,-6402,10003
-1186,-143,899,-3270,-4649,-6551,10003
-1132,-207,879,-3574,-4775,-6709,10003
-1060,-267,772,-3950,-4903,-6866,10003
-983,-275,759,-4181,-5022,-7140,10003
-858,-380,885,-4166,-5101,-7360,10003
-730,-519,946,-4210,-5150,-7521,10003
-597,-633,1047,-4117,-5112,-7685,10003
-518,-767,1181,-3786,-5055,-7880,10003
-438,-991,1346,-3374,-4966,-8013,10003
-401,-1126,1404,-2986,-4888,-8094,10003
-419,-1051,1420,-2568,-4849,-8211,10003
-399,-994,1440,-2207,-4827,-8359,10003
-376,-1103,1387,-2028,-4844,-8400,10003
-294,-1169,1390,-1870,-4817,-8475,10003
-225,-1381,1496,-1604,-4767,-8456,10003
-171,-1610,1439,-1735,-4777,-8258,10003
-120,-1568,1404,-1772,-4802,-8188,10003
-87,-1418,1278,-1833,-4858,-8243,10003
0,-1280,1190,-1894,-4941,-8377,10003
157,-1248,1115,-1803,-5020,-8487,10003
286,-1288,1137,-1637,-5080,-8571,10003
447,-1468,1176,-1770,-5145,-8429,10003
556,-1441,1144,-2426,-5279,-8202,10003
719,-1098,1135,-3528,-5418,-7978,10003
1003,-966,1108,-4935,-5282,-7846,10003
1363,-1241,1037,-6322,-4928,-7770,10003
1639,-1660,993,-7077,-4490,-7846,10003
1843,-2233,920,-6862,-4121,-7956,10003
1946,-2615,898,-5874,-3835,-8004,10003
1925,-2604,888,-4505,-3749,-8051,10003
1899,-2384,857,-3190,-3735,-8040,10003
1919,-2116,799,-2284,-3703,-7996,10003
1967,-1926,759,-1740,-3662,-7954,10003
2067,-1870,693,-1555,-3589,-7818,10003
2213,-1917,650,-1528,-3471,-7619,10003
2316,-1933,619,-1379,-3351,-7501,10003
2392,-1878,605,-1241,-3214,-7402,10003
2450,-1797,598,-1162,-3061,-7265,10003
2483,-1711,621,-1219,-2907,-7065,10003
2587,-1653,628,-1362,-2707,-6825,10003
2661,-1667,642,-1565,-2468,-6502,10003
2693,-1709,700,-1713,-2173,-6129,10003
2697,-1748,804,-1720,-1847,-5689,10003
2618,-1749,839,-1675,-1513,-5203,10003
2501,-1694,814,-1619,-1271,-4695,10003
2362,-1582,749,-1597,-1112,-4156,10003
2274,-1468,638,-1598,-1034,-3622,10003
2218,-1364,575,-1676,-1030,-3033,10003
2221,-1315,645,-1502,-914,-2515,10003
2156,-1309,607,-1341,-854,-2005,10003
2110,-1227,643,-1149,-793,-1492,10003
2076,-1160,630,-908,-754,-1059,10003
2070,-1114,616,-735,-699,-668,10003
2039,-1064,588,-610,-646,-296,10003
2001,-1058,540,-531,-592,20,10003
1969,-1062,499,-497,-560,288,10003
1935,-1051,446,-528,-517,516,10003
1899,-1054,428,-549,-500,706,10003
1854,-1050,375,-576,-517,847,10003
1834,-1069,337,-539,-541,964,10003
1835,-1083,318,-451,-576,1046,10003
1844,-1137,300,-284,-622,1102,10003
1814,-1157,326,-41,-640,1150,10003
1797,-1175,336,264,-652,1188,10003
1748,-1216,372,623,-670,1201,10003
1728,-1193,391,958,-717,1153,10003
1750,-1146,396,1267,-752,1098,10003
1765,-1093,383,1486,-758,1022,10003
1785,-1056,397,1627,-748,952,10003
1790,-986,390,1720,-733,891,10003
1793,-936,362,1780,-724,827,10003
1799,-896,341,1788,-708,764,10003
1801,-830,334,1782,-681,702,10003
1814,-748,325,1722,-649,612,10003
1828,-668,349,1616,-593,511,10003
1871,-563,402,1398,-517,412,10003
1930,-471,442,1102,-379,305,10003
1940,-457,464,859,-235,168,10003
1962,-534,473,798,-103,-16,10003
1940,-547,416,837,-56,-168,10003
1956,-448,384,760,-10,-276,10003
1961,-389,342,520,45,-346,10003
1962,-471,311,224,87,-393,10003
1974,-651,270,39,120,-389,10003
1955,-790,270,1,103,-368,10003
1949,-865,266,82,69,-321,10003
1931,-869,256,162,49,-244,10003
1916,-871,262,247,20,-181,10003
1908,-843,259,284,3,-92,10003
1889,-834,257,309,-10,-17,10003
1871,-821,241,354,-29,46,10003
1853,-825,218,426,-35,111,10003
1843,-817,202,525,-58,150,10003
1824,-812,205,613,-94,192,10003
1819,-804,188,702,-106,221,10003
1824,-790,189,775,-139,243,10003
1815,-775,178,827,-155,238,10003
1822,-761,197,861,-168,235,10003
1824,-748,194,877,-176,198,10003
1843,-730,201,852,-173,165,10003
1854,-694,217,775,-165,148,10003
1858,-661,235,649,-143,119,10003
1865,-648,243,466,-125,80,10003
1855,-636,260,257,-96,36,10003
1852,-628,270,52,-82,-13,10003
1862,-643,270,-157,-53,-47,10003
1867,-654,286,-320,-44,-88,10003
1869,-695,303,-454,-38,-128,10003
1862,-718,311,-536,-23,-147,10003
1873,-729,308,-603,-20,-175,10003
1871,-754,307,-648,-9,-193,10003
1865,-766,308,-680,-20,-203,10003
1876,-789,304,-672,-7,-204,10003
1868,-815,300,-631,-13,-196,10003
1877,-822,314,-571,-18,-183,10003
1869,-841,312,-484,-25,-163,10003
1864,-845,300,-394,-34,-149,10003
1880,-845,302,-294,-46,-130,10003
1889,-843,306,-205,-75,-112,10003
1882,-835,299,-126,-58,-96,10003
1887,-832,300,-81,-68,-70,10003
1873,-829,312,-52,-71,-68,10003
1874,-819,316,-54,-69,-43,10003
1864,-819,312,-48,-62,-33,10003
1856,-817,318,-31,-54,-18,10003
1855,-833,312,-22,-48,-10,10003
1839,-829,316,8,-60,-6,10003
1849,-823,294,27,-57,3,10003
1847,-822,299,55,-47,15,10003
1852,-817,294,71,-41,19,10003
1851,-824,286,110,-52,13,10003
1854,-825,289,143,-44,8,10003
1856,-818,274,164,-45,13,10003
1855,-819,275,209,-51,8,10003
1868,-818,278,232,-52,4,10003
1849,-802,271,251,-53,-10,10003
1852,-800,284,266,-55,-10,10003
1859,-793,265,260,-64,-4,10003
1861,-794,283,278,-56,-2,10003
1861,-788,278,274,-57,-9,10003
1874,-782,272,267,-55,-4,10003
1864,-769,286,263,-57,3,10003
1868,-772,261,259,-60,11,10003
1871,-771,271,263,-54,17,10003
1877,-758,268,247,-43,16,10003
1873,-761,271,245,-42,25,10003
1877,-760,283,239,-35,43,10003
1876,-755,266,231,-33,38,10003
1880,-758,266,212,-36,47,10003
1889,-759,284,187,-34,45,10003
1891,-751,264,173,-23,57,10003
1889,-758,278,145,-23,55,10003
1886,-766,269,135,-17,53,10003
1894,-755,268,119,-27,56,10003
1879,-753,272,103,-23,36,10003
1873,-755,264,97,-25,39,10003
1876,-757,264,87,-19,44,10003
1856,-759,256,77,-28,52,10003
1862,-755,279,77,-28,44,10003
1864,-754,263,75,-28,48,10003
1865,-755,266,66,-31,46,10003
1868,-749,297,55,-34,54,10003
1873,-763,266,46,-29,44,10003
1874,-760,294,26,-26,44,10003
1876,-758,286,12,-21,44,10003
1880,-769,280,-2,-22,48,10003
1891,-767,291,-12,-8,38,10003
1876,-772,276,-13,0,49,10003
1867,-777,278,-29,4,44,10003
1867,-781,286,-14,11,58,10003
1869,-775,276,-27,16,63,10003
1862,-785,281,-22,19,75,10003
1872,-774,281,-23,20,80,10003
1875,-770,274,-23,26,70,10003
1872,-761,247,-32,24,82,10003
1868,-763,272,-38,31,87,10003
1879,-759,256,-51,29,74,10003
1875,-753,268,-68,34,66,10003
1870,-754,271,-95,30,74,10003
1862,-756,270,-124,31,58,10003
1865,-762,274,-137,25,51,10003
1866,-769,283,-153,35,35,10003
1867,-776,280,-165,27,29,10003
1863,-782,284,-183,35,24,10003
1866,-780,284,-194,38,21,10003
1854,-792,292,-204,33,23,10003
1853,-804,291,-203,38,16,10003
1862,-806,286,-207,35,21,10003
1858,-818,287,-204,39,7,10003
1853,-818,294,-191,40,4,10003
1852,-818,308,-182,28,11,10003
1853,-827,290,-168,29,21,10003
1854,-813,314,-162,29,11,10003
1847,-821,298,-155,29,22,10003
1852,-818,301,-143,25,32,10003
1858,-827,298,-113,36,35,10003
1854,-825,306,-101,39,44,10003
1853,-824,298,-70,16,37,10003
1853,-815,290,-35,12,31,10003
1853,-824,295,-12,17,30,10003
1846,-818,293,5,9,36,10003
1854,-797,289,18,16,23,10003
1863,-794,296,25,10,38,10003
1854,-784,289,14,16,37,10003
1851,-782,293,13,9,32,10003
1864,-781,283,5,19,26,10003
1863,-778,284,-1,17,32,10003
1864,-783,288,3,8,37,10003
1866,-780,280,1,10,41,10003
1866,-773,271,-17,15,43,10003
1871,-773,277,-29,13,42,10003
1867,-778,286,-53,3,45,10003
1863,-772,285,-52,6,43,10003
1863,-765,287,-79,12,35,10003
1868,-769,263,-87,5,23,10003
1868,-777,277,-101,3,20,10003
1878,-787,275,-113,19,19,10003
1874,-783,282,-124,11,14,10003
1870,-794,284,-110,8,13,10003
1857,-798,280,-117,18,8,10003
1859,-790,293,-109,4,9,10003
1853,-802,293,-97,1,15,10003
1853,-809,282,-93,6,9,10003
1853,-830,280,-76,2,20,10003
1857,-830,291,-56,-10,28,10003
1854,-856,297,-29,-10,65,10003
1873,-884,293,26,-14,106,10003
1879,-894,302,98,-17,143,10003
1877,-873,302,164,-31,180,10003
1873,-856,304,221,-29,227,10003
1876,-860,309,275,-32,261,10003
1884,-866,315,323,-37,300,10003
1872,-855,313,374,-38,316,10003
1877,-846,322,394,-35,340,10003
1880,-839,325,386,-32,371,10003
1865,-833,329,355,-21,380,10003
1857,-830,339,332,-5,397,10003
1852,-821,319,315,3,414,10003
1854,-823,328,307,17,426,10003
1850,-815,322,324,23,428,10003
1840,-824,312,330,30,401,10003
1837,-810,305,331,32,379,10003
1834,-806,303,313,29,360,10003
1827,-798,302,291,34,322,10003
1821,-799,300,261,34,285,10003
1812,-799,293,210,32,262,10003
1808,-795,285,137,52,227,10003
1802,-787,282,65,57,197,10003
1794,-801,286,5,62,147,10003
1798,-809,269,-35,67,104,10003
1792,-820,275,-62,66,76,10003
1794,-839,279,-54,54,44,10003
1794,-862,258,-18,41,27,10003
1807,-889,268,18,24,15,10003
1824,-875,270,58,-5,11,10003
1833,-835,277,66,-2,15,10003
1835,-831,284,37,-13,43,10003
1842,-824,295,-6,-11,48,10003
1848,-846,302,-46,1,62,10003
1861,-872,316,-50,9,76,10003
1856,-889,322,-29,8,97,10003
1859,-889,336,-1,24,131,10003
1865,-909,351,37,33,171,10003
1878,-914,355,63,48,222,10003
1877,-894,352,101,59,248,10003
1868,-881,352,120,66,276,10003
1866,-873,353,133,74,315,10003
1860,-868,358,137,72,342,10003
1841,-870,347,137,92,363,10003
1842,-874,360,136,97,370,10003
1830,-869,367,128,110,376,10003
1822,-859,361,112,126,365,10003
1842,-864,344,71,128,382,10003
1811,-857,346,-7,156,369,10003
1802,-849,339,-89,167,355,10003
1799,-867,342,-154,174,345,10003
1797,-890,325,-207,178,321,10003
1781,-890,331,-232,181,310,10003
1787,-918,325,-227,163,301,10003
1776,-960,325,-216,161,293,10003
1778,-965,328,-146,143,282,10003
1792,-971,327,-77,132,274,10003
1777,-965,320,-24,116,270,10003
1786,-966,326,30,113,248,10003
1780,-959,347,70,104,253,10003
1781,-945,334,89,109,256,10003
1780,-946,349,86,111,260,10003
1792,-939,349,60,127,279,10003
1794,-950,361,42,138,297,10003
1804,-973,375,28,144,330,10003
1801,-985,359,33,154,360,10003
1803,-981,372,34,150,379,10003
1801,-974,386,41,164,412,10003
1818,-986,387,31,168,451,10003
1810,-1002,403,36,183,480,10003
1819,-1053,410,51,206,526,10003
1833,-1074,414,69,224,605,10003
1846,-1075,421,87,239,673,10003
1860,-1085,419,93,288,763,10003
1874,-1093,404,79,314,871,10003
1883,-1109,412,74,349,974,10003
1885,-1128,439,99,395,1098,10003
1908,-1164,448,127,448,1265,10003
1934,-1200,465,156,511,1426,10003
1940,-1240,476,175,593,1590,10003
1959,-1282,474,222,686,1782,10003
1961,-1355,477,329,782,1957,10003
1965,-1452,500,519,853,2126,10003
1970,-1474,514,742,917,2346,10003
1969,-1510,539,995,1027,2544,10003
1970,-1556,555,1248,1115,2758,10003
1998,-1659,593,1558,1238,2965,10003
2005,-1772,621,1990,1336,3175,10003
2048,-1828,674,2445,1454,3437,10003
2077,-1818,725,2749,1672,3703,10003
1992,-1849,783,3027,1849,3882,10003
1969,-1830,846,3285,2029,4076,10003
1959,-1855,935,3467,2266,4248,10003
1911,-1878,995,3652,2493,4402,10003
1876,-1834,1034,3745,2732,4535,10003
1767,-1817,1103,3746,2945,4705,10003
1712,-1848,1137,3662,3130,4893,10003
1667,-1954,1147,3646,3341,5052,10003
1588,-1969,1220,3716,3509,5115,10003
1514,-1992,1297,3816,3667,5237,10003
1442,-1911,1345,3779,3814,5349,10003
1364,-1793,1415,3520,3989,5486,10003
1287,-1744,1464,3103,4189,5600,10003
1208,-1753,1488,2814,4386,5710,10003
1074,-1778,1475,2587,4508,5839,10003
974,-1781,1511,2453,4626,5967,10003
902,-1809,1548,2365,4750,6125,10003
833,-1882,1525,2288,4849,6274,10003
753,-1833,1505,2257,4901,6407,10003
673,-1789,1472,2279,4966,6558,10003
574,-1732,1445,2234,5004,6685,10003
485,-1605,1444,2242,5034,6758,10003
387,-1559,1497,2178,5099,6857,10003
303,-1536,1478,2047,5103,6952,10003
233,-1463,1542,1991,5148,7015,10003
155,-1426,1481,1800,5168,7109,10003
69,-1206,1442,1602,5153,7112,10003
-40,-1002,1473,1379,5200,7155,10003
-139,-978,1426,955,5223,7230,10003
-256,-945,1380,714,5192,7268,10003
-347,-979,1347,581,5130,7331,10003
-445,-952,1384,537,5077,7411,10003
-566,-919,1261,464,4882,7497,10003
-608,-889,1285,592,4807,7541,10003
-693,-1077,1287,740,4702,7696,10003
-777,-1066,1218,964,4525,7786,10003
-899,-889,1142,1360,4323,7772,10003
-959,-816,1184,1771,4234,7798,10003
-1040,-813,1088,1804,4069,7861,10003
-1107,-714,1040,2074,3950,7810,10003
-1223,-610,951,2239,3767,7766,10003
-1271,-611,930,2473,3639,7669,10003
-1345,-555,843,2584,3475,7591,10003
-1388,-625,870,2891,3343,7473,10003
-1422,-636,865,3174,3242,7398,10003
-1509,-530,874,3559,3107,7256,10003
-1544,-393,849,3946,2970,7082,10003
-1518,-270,872,4218,2893,6945,10003
-1457,14,876,4313,2850,6818,10003
-1422,244,866,4265,2805,6760,10003
-1471,311,868,4287,2807,6680,10003
-1591,344,839,4420,2727,6530,10003
-1651,323,791,4613,2610,6355,10003
-1687,331,723,4830,2445,6253,10003
-1782,444,627,4749,2354,6088,10003
-1845,651,497,4402,2217,5961,10003
-1865,642,475,3793,2108,5913,10003
-1865,580,556,3199,2037,5925,10003
-1866,532,586,2757,1945,5987,10003
-1824,609,704,2382,1883,6071,10003
-1784,696,840,2003,1851,6208,10003
-1729,686,891,1717,1871,6306,10003
-1687,644,948,1806,1843,6314,10003
-1587,766,887,2053,1751,6235,10003
-1507,970,787,2170,1612,6151,10003
-1417,1123,623,2143,1479,5998,10003
-1326,1144,520,2226,1258,5815,10003
-1221,1216,562,2319,1087,5631,10003
-1139,1340,663,2277,975,5370,10003
-1065,1440,791,2089,901,5051,10003
-996,1546,794,1805,858,4674,10003
-982,1571,697,1449,824,4284,10003
-860,1654,692,947,745,3909,10003
-764,1862,773,-190,803,3715,10003
-874,1886,718,-1538,953,3507,10003
-1010,1759,609,-2458,917,3308,10003
-1061,1625,595,-2983,879,3166,10003
-1120,1426,594,-3126,860,3060,10003
-1170,1149,811,-2706,768,2928,10003
-1098,932,722,-1744,542,2747,10003
-1100,1048,666,-653,376,2730,10003
-1138,1337,532,-38,193,2861,10003
-1082,1483,512,6,133,2841,10003
-1022,1666,553,-208,140,2744,10003
-954,1840,646,-684,219,2638,10003
-911,2022,732,-1410,363,2501,10003
-902,1993,714,-2178,555,2330,10003
-911,1850,702,-2791,690,2159,10003
-979,1765,668,-3223,752,2040,10003
-1005,1686,565,-3374,718,1935,10003
-918,1454,657,-2902,710,1817,10003
-864,1011,640,-1586,640,1665,10003
-854,755,601,134,442,1490,10003
-814,883,451,1763,131,1367,10003
-587,1262,357,2617,-57,1229,10003
-464,1517,353,2599,-7,1009,10003
-404,1610,413,2152,73,720,10003
-376,1487,386,1880,120,349,10003
-413,1395,345,1631,78,9,10003
-427,1447,304,1318,-11,-249,10003
-418,1407,265,933,-88,-408,10003
-477,1326,279,577,-197,-465,10003
-532,1320,320,389,-299,-565,10003
-536,1327,418,446,-291,-781,10003
-546,1432,592,534,-248,-948,10003
-532,1657,823,484,-69,-1057,10003
-572,1789,918,386,241,-1183,10003
-697,1692,877,383,561,-1354,10003
-876,1530,796,537,731,-1492,10003
-988,1557,688,723,812,-1552,10003
-1044,1703,561,898,856,-1586,10003
-1055,1815,502,907,892,-1615,10003
-1098,1901,476,807,901,-1603,10003
-1179,1923,431,699,897,-1601,10003
-1226,1869,382,616,838,-1573,10003
-1226,1869,402,501,770,-1551,10003
-1191,1899,373,327,697,-1495,10003
-1185,1939,391,140,644,-1426,10003
-1199,1944,396,-57,600,-1366,10003
-1234,1918,395,-198,540,-1341,10003
-1254,1877,401,-314,458,-1306,10003
-1269,1824,407,-401,392,-1260,10003
-1290,1763,407,-406,346,-1198,10003
-1320,1676,432,-277,297,-1129,10003
-1366,1621,446,-105,227,-1057,10003
-1361,1635,470,79,165,-1008,10003
-1355,1649,444,234,118,-965,10003
-1352,1632,403,447,71,-976,10003
-1332,1641,383,573,-27,-940,10003
-1259,1687,390,733,-55,-978,10003
-1253,1698,385,665,-34,-894,10003
-1292,1737,385,444,-34,-904,10003
-1339,1679,369,247,-26,-897,10003
-1352,1616,367,87,-48,-861,10003
-1351,1574,378,0,-81,-848,10003
-1352,1566,363,-56,-79,-811,10003
-1348,1559,361,-87,-110,-786,10003
-1342,1520,328,-52,-166,-805,10003
-1298,1513,279,79,-254,-888,10003
-1235,1529,308,302,-333,-993,10003
-1178,1597,343,464,-436,-1093,10003
-1208,1613,348,616,-491,-1117,10003
-1298,1586,331,416,-539,-1060,10003
-1357,1561,367,52,-515,-1014,10003
-1390,1506,420,-394,-470,-928,10003
-1391,1450,445,-671,-424,-899,10003
-1369,1431,479,-833,-381,-874,10003
-1437,1460,488,-928,-315,-832,10003
-1420,1501,491,-1052,-266,-816,10003
-1385,1522,575,-1194,-222,-796,10003
-1294,1493,578,-1300,-160,-736,10003
-1287,1480,604,-1347,-102,-686,10003
-1348,1502,591,-1444,-66,-679,10003
-1412,1532,551,-1709,-36,-697,10003
-1475,1507,508,-2014,-43,-728,10003
-1478,1403,500,-2200,-66,-729,10003
-1466,1292,536,-2050,-109,-764,10003
-1498,1239,567,-1679,-185,-739,10003
-1526,1237,672,-1144,-272,-764,10003
-1451,1198,783,-614,-326,-800,10003
-1413,1298,829,-144,-344,-903,10003
-1422,1551,710,-79,-330,-940,10003
-1495,1826,572,-607,-328,-969,10003
-1504,1970,480,-1609,-338,-868,10003
-1423,1974,418,-2871,-273,-655,10003
-1334,1510,573,-3692,-57,-569,10003
-1335,814,945,-3539,205,-558,10003
-1504,255,1239,-2474,346,-442,10003
-1612,249,1377,-1331,395,-251,10003
-1590,728,1271,-729,526,-109,10003
-1507,1266,1027,-868,811,-12,10003
-1498,1612,831,-1412,1023,-28,10003
-1505,1704,664,-1884,1118,-116,10003
-1485,1552,579,-1885,1114,-265,10003
-1539,1347,509,-1471,965,-374,10003
-1619,1288,431,-867,720,-455,10003
-1601,1280,603,-484,496,-416,10003
-1582,1292,653,-445,341,-369,10003
-1593,1378,710,-554,282,-420,10003
-1604,1371,736,-782,215,-431,10003
-1636,1317,774,-956,168,-417,10003
-1637,1298,739,-1124,134,-383,10003
-1634,1194,792,-1113,108,-345,10003
-1639,1008,824,-859,47,-271,10003
-1646,944,883,-438,-41,-205,10003
-1598,1073,1002,-194,-88,-155,10003
-1568,1182,1017,-148,-81,-88,10003
-1586,1250,982,-173,-65,-103,10003
-1580,1229,930,-244,-95,-121,10003
-1572,1219,859,-347,-89,-149,10003
-1567,1203,830,-540,-113,-163,10003
-1554,1102,785,-535,-141,-186,10003
-1542,957,754,-307,-206,-185,10003
-1563,936,777,42,-294,-186,10003
-1511,932,803,317,-362,-154,10003
-1483,992,813,496,-362,-128,10003
-1499,1008,857,676,-366,-152,10003
-1484,1056,875,790,-345,-173,10003
-1511,1273,761,638,-333,-164,10003
-1503,1375,783,370,-273,-199,10003
-1474,1271,830,162,-238,-233,10003
