accelerometerX,accelerometerY,accelerometerZ,gyroscopeX,gyroscopeY,gyroscopeZ,deviceID
1952,-640,250,78,44,-70,63.706
1944,-637,242,70,58,-69,63.716
1952,-640,217,71,47,-54,63.726
1958,-643,219,55,53,-65,63.736
1961,-642,213,52,57,-51,63.746
1961,-644,214,50,60,-61,63.756
1955,-652,220,46,60,-52,63.766
1959,-647,242,59,61,-52,63.776
1960,-652,222,70,47,-56,63.786
1953,-647,230,74,37,-52,63.796
1946,-642,204,75,33,-42,63.806
1951,-652,223,81,29,-35,63.816
1954,-647,223,89,32,-34,63.826
1951,-652,209,88,16,-27,63.836
1951,-640,220,83,23,-24,63.846
1961,-638,209,76,20,-14,63.856
1952,-638,230,66,28,-15,63.866
1954,-639,227,69,19,-3,63.876
1956,-641,221,59,34,-2,63.886
1958,-639,225,60,32,12,63.896
1947,-641,218,65,21,13,63.906
1941,-644,212,69,28,12,63.916
1943,-640,216,78,23,12,63.926
1940,-637,232,77,19,3,63.936
1938,-632,217,93,11,11,63.946
1950,-629,206,96,16,7,63.956
1949,-634,211,97,11,4,63.966
1947,-637,225,102,13,3,63.976
1949,-632,228,103,7,6,63.986
1964,-623,224,95,9,11,63.996
1961,-635,218,93,9,11,64.006
1963,-633,202,88,9,12,64.016
1953,-626,225,92,9,17,64.026
1969,-621,225,69,21,18,64.036
1971,-620,227,60,26,30,64.046
1978,-612,222,46,12,30,64.056
1973,-618,227,30,23,17,64.066
1971,-612,234,11,26,18,64.076
1966,-622,235,6,22,3,64.086
1966,-618,239,6,24,-8,64.096
1965,-629,241,7,20,-20,64.106
1955,-621,248,16,27,-32,64.116
1952,-629,239,22,26,-41,64.126
1952,-625,241,33,26,-54,64.136
1948,-627,235,44,26,-68,64.146
1941,-624,242,51,19,-80,64.156
1949,-626,239,45,25,-88,64.166
1944,-627,235,55,30,-101,64.176
1952,-632,234,69,17,-114,64.186
1948,-638,235,68,12,-119,64.196
1954,-628,223,73,10,-130,64.206
1976,-634,229,79,14,-135,64.216
1969,-639,231,69,9,-142,64.226
1963,-649,230,68,9,-145,64.236
1962,-640,232,59,12,-151,64.246
1965,-642,224,64,10,-137,64.256
1962,-636,209,79,12,-124,64.266
1958,-642,219,80,10,-130,64.276
1955,-652,217,83,13,-119,64.286
1955,-653,223,83,5,-110,64.296
1956,-651,209,102,-3,-109,64.306
1966,-633,223,105,-2,-104,64.316
1961,-643,224,80,11,-96,64.326
1960,-635,220,77,12,-91,64.336
1962,-645,230,59,2,-91,64.346
1959,-637,214,42,5,-84,64.356
1961,-652,227,36,6,-82,64.366
1953,-644,226,38,11,-60,64.376
1960,-647,243,38,12,-66,64.386
1954,-646,228,42,1,-57,64.396
1961,-639,241,43,7,-48,64.406
1966,-643,226,42,11,-58,64.416
1962,-646,225,41,17,-51,64.426
1960,-649,235,47,25,-48,64.436
1956,-647,237,44,23,-44,64.446
1965,-644,240,51,14,-44,64.456
1958,-646,229,59,26,-45,64.466
1957,-640,227,68,17,-38,64.476
1955,-637,238,72,23,-35,64.486
1948,-639,239,73,22,-40,64.496
1944,-638,234,71,18,-33,64.506
1950,-631,229,60,28,-37,64.516
1952,-638,241,58,25,-32,64.526
1961,-639,243,52,39,-30,64.536
1960,-643,236,63,38,-31,64.546
1956,-646,244,67,52,-30,64.556
1957,-645,233,83,43,-33,64.566
1946,-641,244,88,45,-29,64.576
1951,-640,247,93,41,-31,64.586
1949,-633,245,91,39,-29,64.596
1952,-628,235,84,54,-26,64.606
1949,-626,241,81,54,-18,64.616
1952,-633,237,72,54,-15,64.626
1956,-633,241,72,49,-17,64.636
1956,-632,226,60,58,-16,64.646
1947,-640,223,65,61,-22,64.656
1938,-629,235,71,58,-14,64.666
1948,-626,240,77,64,-11,64.676
1951,-631,225,77,62,-10,64.686
1957,-626,236,96,56,-16,64.696
1948,-631,245,104,53,-16,64.706
1947,-625,223,112,48,-17,64.716
1958,-627,226,102,42,-23,64.726
1954,-632,214,112,48,-26,64.736
1955,-623,230,103,42,-28,64.746
1953,-622,227,99,38,-32,64.756
1962,-629,222,95,38,-37,64.766
1956,-627,239,85,31,-46,64.776
1959,-632,221,95,31,-65,64.786
1949,-640,230,90,28,-57,64.796
1942,-645,227,105,23,-59,64.806
1955,-636,218,111,27,-66,64.816
1946,-635,240,115,28,-58,64.826
1950,-640,220,120,14,-53,64.836
1948,-628,223,115,23,-49,64.846
1955,-626,233,125,17,-47,64.856
1951,-629,218,120,17,-46,64.866
1961,-632,223,117,12,-44,64.876
1961,-636,227,113,15,-52,64.886
1959,-645,221,113,-3,-55,64.896
1969,-634,224,123,4,-55,64.906
1963,-647,219,131,6,-51,64.916
1955,-628,229,132,6,-57,64.926
1948,-625,227,139,-9,-58,64.936
1950,-633,221,134,1,-47,64.946
1953,-627,216,116,3,-46,64.956
1951,-631,242,100,3,-45,64.966
1952,-634,227,100,9,-48,64.976
1961,-633,226,93,10,-32,64.986
1964,-633,226,102,8,-41,64.996
1965,-632,242,100,15,-44,65.006
1951,-637,221,103,17,-47,65.016
1962,-645,235,110,13,-40,65.026
1957,-638,229,123,7,-44,65.036
1941,-634,245,128,15,-37,65.046
1953,-620,236,110,13,-33,65.056
1949,-632,228,99,15,-26,65.066
1957,-621,235,83,17,-27,65.076
1956,-634,242,72,27,-21,65.086
1964,-628,223,73,16,-23,65.096
1971,-629,220,72,26,-33,65.106
1971,-640,236,78,17,-27,65.116
1970,-642,229,86,21,-19,65.126
1970,-640,222,98,17,-26,65.136
1964,-636,221,108,6,-23,65.146
1961,-631,233,108,5,-20,65.156
1956,-634,236,130,-8,-14,65.166
1958,-631,226,125,-8,-5,65.176
1953,-623,218,126,-22,-2,65.186
1949,-629,230,124,-13,3,65.196
1950,-622,234,139,-17,9,65.206
1946,-618,232,138,-16,3,65.216
1948,-620,236,158,-28,2,65.226
1938,-610,221,150,-17,10,65.236
1942,-608,251,145,-7,12,65.246
1941,-607,235,146,1,1,65.256
1950,-608,237,135,-2,1,65.266
1956,-606,244,124,9,-6,65.276
1945,-599,235,113,7,-6,65.286
1947,-604,235,106,2,-14,65.296
1958,-603,235,105,18,-13,65.306
1956,-609,220,108,18,-37,65.316
1963,-615,222,109,12,-41,65.326
1964,-606,213,111,11,-50,65.336
1973,-600,229,115,22,-50,65.346
1965,-605,216,96,20,-53,65.356
1963,-601,224,83,9,-51,65.366
1961,-612,218,73,24,-48,65.376
1963,-605,227,48,23,-47,65.386
1958,-607,218,46,19,-48,65.396
1970,-611,216,43,23,-51,65.406
1958,-611,214,49,23,-60,65.416
1953,-613,233,53,18,-66,65.426
1957,-627,217,64,20,-79,65.436
1945,-616,226,74,14,-86,65.446
1946,-605,215,82,16,-99,65.456
1942,-605,210,76,12,-109,65.466
1955,-608,192,65,5,-101,65.476
1953,-609,203,55,9,-126,65.486
1959,-614,211,48,-4,-129,65.496
1954,-613,197,48,-6,-135,65.506
1951,-625,193,48,-17,-143,65.516
1955,-623,189,69,-23,-145,65.526
1941,-624,199,78,-35,-157,65.536
1947,-621,193,110,-67,-153,65.546
1944,-630,189,129,-84,-155,65.556
1945,-640,200,161,-112,-159,65.566
1958,-642,178,175,-127,-157,65.576
1968,-639,198,196,-140,-167,65.586
1976,-635,189,213,-150,-177,65.596
1995,-633,209,202,-154,-186,65.606
1997,-637,215,198,-158,-191,65.616
2003,-632,230,179,-147,-195,65.626
1990,-633,230,177,-153,-190,65.636
1978,-642,232,164,-152,-177,65.646
1965,-643,249,156,-154,-161,65.656
1961,-641,257,147,-134,-139,65.666
1946,-641,256,139,-123,-102,65.676
1945,-628,258,114,-99,-73,65.686
1958,-629,257,94,-78,-31,65.696
1963,-624,261,74,-60,-18,65.706
1960,-627,268,51,-39,7,65.716
1959,-620,235,42,-12,15,65.726
1960,-624,249,20,8,31,65.736
1947,-622,240,20,24,44,65.746
1944,-605,223,5,31,53,65.756
1946,-608,219,-9,38,62,65.766
1959,-610,224,-26,47,65,65.776
1950,-608,212,-34,45,72,65.786
1949,-614,213,-52,41,80,65.796
1964,-621,219,-55,52,77,65.806
1980,-621,206,-31,44,81,65.816
1986,-633,210,-17,53,63,65.826
1989,-641,213,18,56,56,65.836
1987,-635,211,45,59,46,65.846
1982,-623,204,73,67,35,65.856
1982,-620,201,79,70,28,65.866
1985,-601,188,71,93,34,65.876
1973,-588,195,27,90,42,65.886
1977,-585,194,-40,101,44,65.896
1988,-585,187,-96,113,49,65.906
1991,-600,199,-141,128,60,65.916
1981,-608,198,-166,123,52,65.926
1964,-604,197,-174,133,48,65.936
1965,-608,178,-145,133,47,65.946
1954,-620,186,-117,132,41,65.956
1945,-615,189,-94,127,38,65.966
1938,-621,183,-60,132,25,65.976
1949,-599,179,-54,137,14,65.986
1941,-592,184,-41,132,13,65.996
1949,-597,156,-52,127,0,66.006
1958,-593,174,-64,116,-8,66.016
1966,-600,173,-63,110,-33,66.026
1979,-616,167,-71,102,-53,66.036
1997,-603,182,-75,101,-72,66.046
2009,-600,173,-69,90,-94,66.056
2004,-598,160,-77,83,-114,66.066
2003,-599,179,-98,84,-119,66.076
2019,-600,169,-115,84,-127,66.086
2010,-606,170,-135,88,-125,66.096
2000,-602,161,-167,87,-122,66.106
1991,-594,177,-185,74,-114,66.116
1987,-590,196,-212,67,-87,66.126
1979,-597,192,-214,58,-83,66.136
1975,-603,191,-214,43,-87,66.146
1971,-606,208,-193,20,-93,66.156
1966,-604,202,-160,8,-109,66.166
1954,-599,215,-123,-1,-121,66.176
1933,-601,227,-82,-3,-144,66.186
1935,-596,217,-62,-5,-162,66.196
1932,-586,212,-49,-9,-173,66.206
1938,-575,215,-55,-5,-189,66.216
1926,-579,216,-70,-12,-202,66.226
1929,-576,231,-79,-21,-217,66.236
1937,-580,223,-97,-27,-232,66.246
1960,-587,222,-105,-17,-227,66.256
1960,-586,218,-99,-33,-236,66.266
1969,-594,202,-87,-40,-249,66.276
1978,-603,205,-69,-57,-254,66.286
1976,-600,200,-53,-60,-262,66.296
1976,-601,212,-28,-78,-272,66.306
1972,-608,233,9,-91,-277,66.316
1972,-606,230,26,-96,-277,66.326
1966,-600,231,49,-109,-274,66.336
1968,-587,226,51,-110,-273,66.346
1987,-585,223,39,-99,-272,66.356
1975,-580,228,11,-90,-256,66.366
1963,-579,243,-15,-73,-246,66.376
1944,-586,256,-37,-75,-235,66.386
1941,-590,257,-48,-64,-231,66.396
1936,-590,244,-44,-53,-222,66.406
1938,-598,233,-17,-48,-232,66.416
1927,-609,235,19,-38,-239,66.426
1940,-621,224,53,-33,-243,66.436
1947,-615,227,95,-24,-249,66.446
1952,-609,213,124,-21,-270,66.456
1966,-605,232,123,-12,-265,66.466
1977,-609,201,125,3,-264,66.476
1992,-616,187,122,13,-250,66.486
1978,-610,188,110,23,-246,66.496
1987,-609,184,89,27,-229,66.506
1985,-619,194,73,38,-195,66.516
1985,-622,190,56,23,-164,66.526
1988,-618,179,48,34,-139,66.536
1989,-620,172,37,43,-91,66.546
1994,-629,182,37,51,-61,66.556
1976,-631,160,26,52,-30,66.566
1984,-629,168,27,56,4,66.576
1970,-622,195,32,56,28,66.586
1969,-634,179,54,53,52,66.596
1973,-627,203,72,52,78,66.606
1968,-616,183,96,53,98,66.616
1980,-608,189,109,48,109,66.626
1970,-607,174,120,40,124,66.636
1976,-599,177,131,38,136,66.646
1974,-593,181,126,30,133,66.656
1974,-595,191,123,31,137,66.666
1967,-599,175,132,36,150,66.676
1973,-588,186,130,35,139,66.686
1972,-582,171,133,34,145,66.696
1971,-594,173,134,34,144,66.706
1972,-590,174,154,39,128,66.716
1965,-588,172,147,42,126,66.726
1983,-583,180,151,27,124,66.736
1984,-578,189,153,27,125,66.746
1973,-571,182,155,31,110,66.756
1984,-584,191,162,19,121,66.766
1977,-581,195,172,17,128,66.776
1997,-574,206,175,9,124,66.786
1999,-574,188,169,19,118,66.796
1992,-570,193,162,22,117,66.806
2002,-567,178,146,41,95,66.816
2006,-566,193,137,45,82,66.826
2004,-556,208,126,55,75,66.836
1997,-569,197,113,70,69,66.846
1990,-560,199,106,66,59,66.856
1984,-567,205,111,71,42,66.866
1966,-565,189,114,72,30,66.876
1974,-569,184,119,72,25,66.886
1963,-577,196,129,63,23,66.896
1972,-577,189,146,58,21,66.906
1980,-568,194,156,57,16,66.916
1983,-569,204,165,58,7,66.926
1966,-568,177,163,63,12,66.936
1976,-567,190,168,55,4,66.946
1972,-575,176,169,42,-5,66.956
1973,-564,182,181,41,-11,66.966
1973,-574,188,182,36,-23,66.976
1969,-566,176,173,37,-28,66.986
1978,-565,182,168,34,-38,66.996
1983,-558,182,163,32,-57,67.006
1981,-567,185,150,29,-73,67.016
1968,-574,189,152,42,-87,67.026
1972,-577,180,144,39,-97,67.036
1967,-573,196,145,40,-114,67.046
1972,-584,184,145,44,-118,67.056
1973,-575,192,138,38,-121,67.066
1976,-581,182,145,34,-133,67.076
1966,-577,187,128,35,-131,67.086
1967,-578,197,114,38,-127,67.096
1975,-581,193,95,37,-126,67.106
1971,-579,190,78,47,-113,67.116
1975,-584,189,81,43,-118,67.126
1966,-591,192,82,40,-103,67.136
1975,-587,188,84,43,-108,67.146
1971,-593,182,107,41,-105,67.156
1980,-596,182,114,31,-93,67.166
1962,-602,191,122,28,-86,67.176
1967,-595,204,123,32,-79,67.186
1973,-593,199,124,16,-73,67.196
1984,-593,189,119,19,-75,67.206
1981,-599,203,112,16,-61,67.216
1972,-586,211,97,13,-63,67.226
1979,-600,198,97,19,-59,67.236
1970,-592,202,92,17,-59,67.246
1972,-595,213,101,17,-51,67.256
1970,-597,208,110,11,-52,67.266
1975,-596,200,113,13,-50,67.276
1970,-598,219,122,15,-33,67.286
1980,-599,200,127,15,-30,67.296
1975,-589,220,129,17,-28,67.306
1972,-590,219,135,17,-18,67.316
1975,-573,213,122,31,-15,67.326
1970,-578,206,94,32,-5,67.336
1971,-584,213,81,30,8,67.346
1983,-579,219,64,42,11,67.356
1977,-574,221,47,57,6,67.366
1971,-583,209,34,61,8,67.376
1971,-581,219,40,59,9,67.386
1970,-587,216,43,58,11,67.396
1963,-587,207,63,49,-1,67.406
1961,-588,215,81,53,0,67.416
1966,-582,209,85,48,-13,67.426
1958,-580,215,100,35,-14,67.436
1954,-578,207,99,40,-29,67.446
1963,-578,203,89,37,-36,67.456
1956,-567,208,73,44,-42,67.466
1960,-581,206,61,55,-49,67.476
1978,-582,208,44,46,-59,67.486
1969,-594,210,48,44,-68,67.496
1967,-589,209,54,46,-70,67.506
1972,-602,212,63,44,-86,67.516
1970,-591,205,78,37,-82,67.526
1973,-592,203,87,31,-83,67.536
1969,-589,207,81,29,-91,67.546
1975,-596,200,71,23,-85,67.556
1962,-593,197,65,24,-93,67.566
1976,-604,192,71,34,-81,67.576
1976,-598,212,58,33,-78,67.586
1967,-607,202,59,26,-69,67.596
1962,-597,213,40,23,-54,67.606
1957,-609,207,45,24,-45,67.616
1958,-604,204,48,29,-38,67.626
1972,-607,201,48,26,-30,67.636
1971,-603,219,58,18,-33,67.646
1973,-611,198,54,12,-16,67.656
1967,-607,219,65,16,-20,67.666
1962,-604,205,70,9,-14,67.676
1960,-605,199,75,14,-6,67.686
1972,-599,198,74,2,-12,67.696
1964,-609,206,69,5,-4,67.706
1967,-607,217,60,4,-6,67.716
1956,-608,201,70,-2,-5,67.726
1960,-596,197,57,-6,-14,67.736
1967,-602,228,65,-4,-4,67.746
1967,-595,210,66,-10,-5,67.756
1967,-594,204,57,-9,2,67.766
1969,-600,213,60,-4,10,67.776
1970,-599,207,49,-3,13,67.786
1970,-587,200,48,4,17,67.796
1970,-592,223,31,2,19,67.806
1972,-595,216,15,5,29,67.816
1983,-595,221,20,-4,34,67.826
1973,-589,225,24,-6,34,67.836
1982,-596,235,45,-1,30,67.846
1981,-598,207,44,-4,24,67.856
1984,-595,214,72,3,22,67.866
1981,-589,209,76,2,4,67.876
1981,-588,198,87,8,12,67.886
1984,-578,216,79,2,-2,67.896
1980,-595,238,89,2,-12,67.906
1979,-580,231,96,2,-13,67.916
1968,-586,228,96,20,-24,67.926
1973,-587,213,89,11,-32,67.936
1974,-581,218,83,16,-36,67.946
1970,-581,215,79,24,-41,67.956
1970,-582,211,77,26,-45,67.966
1964,-584,226,76,32,-52,67.976
1972,-586,209,76,38,-54,67.986
1969,-587,202,79,27,-60,67.996
1966,-592,220,77,29,-72,68.006
1975,-591,215,84,32,-66,68.016
1974,-594,204,99,23,-74,68.026
1972,-590,205,99,31,-76,68.036
1974,-596,206,103,24,-66,68.046
1975,-594,200,97,30,-71,68.056
1968,-590,200,93,26,-66,68.066
1981,-595,187,92,19,-66,68.076
1981,-596,208,89,21,-75,68.086
1978,-596,189,93,15,-54,68.096
1978,-599,200,97,8,-57,68.106
1977,-597,197,108,12,-58,68.116
1972,-581,204,108,7,-54,68.126
1971,-587,210,102,8,-52,68.136
1966,-589,215,86,14,-46,68.146
1969,-572,198,68,18,-56,68.156
1978,-579,203,45,27,-57,68.166
1967,-581,185,26,30,-54,68.176
1974,-581,205,19,22,-75,68.186
1976,-583,210,14,30,-77,68.196
1973,-584,200,28,27,-79,68.206
1974,-587,212,46,28,-86,68.216
1970,-581,190,67,15,-87,68.226
1967,-593,198,79,13,-88,68.236
1963,-592,202,86,17,-84,68.246
1972,-587,208,87,8,-86,68.256
1971,-572,211,80,9,-85,68.266
1970,-572,199,78,19,-90,68.276
1975,-584,211,48,16,-74,68.286
1976,-579,198,36,26,-80,68.296
1978,-589,206,40,28,-81,68.306
1979,-588,211,38,27,-84,68.316
1974,-593,207,41,33,-82,68.326
1990,-597,199,40,29,-81,68.336
1981,-586,223,61,32,-78,68.346
1975,-591,198,61,30,-81,68.356
1973,-593,202,65,31,-74,68.366
1982,-575,218,58,33,-80,68.376
1977,-581,211,52,26,-80,68.386
1971,-591,209,48,37,-73,68.396
1969,-586,206,41,31,-74,68.406
1967,-591,205,53,35,-75,68.416
1969,-584,204,53,35,-74,68.426
1972,-590,199,68,41,-78,68.436
1964,-583,202,76,39,-79,68.446
1966,-587,193,74,43,-85,68.456
1975,-592,205,74,39,-79,68.466
1970,-585,198,74,42,-82,68.476
1968,-587,198,81,38,-72,68.486
1962,-590,215,78,43,-68,68.496
1968,-593,187,81,39,-66,68.506
1972,-591,202,92,35,-62,68.516
1970,-598,189,102,21,-65,68.526
1985,-593,201,109,25,-53,68.536
1977,-589,187,130,22,-52,68.546
1978,-594,182,136,13,-63,68.556
1973,-596,192,150,-1,-61,68.566
1976,-599,191,171,-12,-59,68.576
1974,-587,201,176,0,-61,68.586
1967,-567,204,152,-8,-64,68.596
1977,-560,192,106,12,-66,68.606
1961,-552,193,55,25,-56,68.616
1972,-562,182,0,34,-60,68.626
1972,-572,196,-42,40,-56,68.636
1971,-576,213,-71,53,-56,68.646
1965,-597,204,-68,51,-53,68.656
1972,-611,197,-46,39,-52,68.666
1972,-610,202,-8,32,-49,68.676
1975,-602,204,20,31,-36,68.687
1963,-606,207,49,25,-48,68.697
1967,-590,197,48,23,-38,68.706
1972,-574,206,36,20,-37,68.716
1984,-573,192,16,27,-35,68.727
1974,-581,225,-20,31,-29,68.736
1965,-585,193,-32,41,-39,68.746
1977,-585,193,-42,32,-29,68.756
1967,-599,207,-34,36,-28,68.766
1972,-608,217,-16,33,-31,68.776
1974,-609,203,11,24,-36,68.786
1966,-599,201,41,13,-28,68.797
1969,-608,205,73,16,-40,68.807
1974,-600,203,89,6,-33,68.816
1967,-587,214,107,4,-28,68.826
1968,-583,199,87,4,-15,68.837
1977,-582,192,72,10,-21,68.847
1978,-580,209,46,16,-5,68.857
1981,-581,204,32,24,-12,68.867
1979,-590,202,15,19,-14,68.877
1973,-590,208,22,19,-11,68.887
1977,-599,206,32,17,-5,68.897
1967,-598,210,64,7,-22,68.907
1976,-601,196,85,9,-24,68.917
1962,-589,200,104,4,-29,68.927
1970,-585,214,115,2,-23,68.937
1965,-584,210,117,-1,-25,68.947
1969,-577,202,120,-4,-16,68.957
1962,-580,216,92,2,-13,68.967
1974,-578,198,78,5,-9,68.977
1973,-568,213,59,5,-5,68.987
1975,-581,215,45,10,9,68.997
1970,-580,203,37,15,4,69.007
1974,-582,211,38,17,8,69.017
1982,-589,201,52,6,9,69.027
1979,-594,204,59,14,11,69.037
1980,-587,188,74,10,4,69.047
1973,-581,209,79,11,1,69.057
1977,-572,219,85,1,-1,69.067
1981,-580,205,83,4,-7,69.077
1977,-580,205,93,-3,-12,69.087
1973,-574,202,94,4,-9,69.097
1976,-580,208,107,3,-20,69.107
1984,-586,197,100,4,-33,69.117
1974,-587,200,106,7,-21,69.127
1974,-575,201,100,17,-26,69.137
1975,-579,216,101,10,-36,69.147
1971,-580,198,93,8,-35,69.157
1973,-570,208,90,8,-50,69.167
1985,-573,218,88,4,-34,69.177
1978,-586,196,95,7,-45,69.187
1979,-586,202,99,3,-53,69.197
1975,-585,209,102,3,-43,69.207
1967,-589,200,103,9,-39,69.217
1983,-594,204,101,2,-37,69.227
1978,-588,196,104,-2,-34,69.237
1969,-585,181,109,3,-42,69.247
1971,-596,194,105,3,-40,69.257
1972,-583,192,115,3,-36,69.267
1965,-585,185,111,-6,-35,69.277
1961,-593,194,129,-9,-35,69.287
1972,-593,181,126,-6,-37,69.297
1961,-586,190,126,-5,-44,69.307
1965,-586,194,124,5,-38,69.317
1971,-580,187,105,4,-36,69.327
1971,-580,199,90,7,-28,69.337
1974,-592,205,82,18,-26,69.347
1986,-588,193,71,13,-20,69.357
1979,-591,192,70,20,-28,69.367
1981,-591,181,74,15,-13,69.377
1985,-594,198,78,22,-10,69.387
1981,-591,190,87,16,-12,69.397
1984,-589,187,85,27,-6,69.407
1974,-579,191,83,25,0,69.417
1985,-574,202,74,27,2,69.427
1974,-586,191,68,31,7,69.437
1966,-577,202,63,27,2,69.447
1967,-584,194,63,23,-2,69.457
1975,-583,193,65,29,0,69.467
1967,-595,182,70,31,0,69.477
1964,-590,183,85,16,0,69.487
1971,-577,175,92,7,-13,69.497
1978,-587,197,99,16,-6,69.507
1974,-577,196,96,15,-12,69.517
1970,-581,189,100,15,-8,69.527
1963,-575,183,102,14,-13,69.537
1978,-574,190,98,11,-7,69.547
1977,-579,183,92,19,-11,69.557
1991,-573,184,85,22,-9,69.567
1993,-573,175,79,23,-17,69.577
1995,-573,183,77,18,-20,69.587
1983,-574,185,88,16,-29,69.597
1987,-584,199,95,6,-35,69.607
1980,-576,186,97,6,-28,69.617
1984,-571,197,103,9,-44,69.627
1984,-578,187,101,11,-45,69.637
1969,-567,191,106,10,-51,69.647
1973,-562,192,92,9,-51,69.657
1976,-566,191,72,9,-54,69.667
1973,-562,185,65,11,-52,69.677
1975,-573,195,31,18,-52,69.687
1976,-569,191,25,17,-54,69.697
1975,-574,203,16,9,-59,69.707
1970,-581,192,19,18,-64,69.717
1976,-577,191,23,24,-75,69.727
1972,-586,183,47,8,-76,69.737
1968,-586,207,64,4,-84,69.747
1965,-582,201,85,9,-95,69.757
1963,-573,203,101,5,-95,69.767
1965,-580,183,95,7,-93,69.777
1965,-581,186,82,6,-101,69.787
1970,-589,188,71,19,-97,69.797
1971,-586,193,55,16,-90,69.807
1975,-590,191,47,25,-87,69.817
1978,-604,187,51,28,-92,69.827
1979,-605,197,60,28,-82,69.837
1975,-608,189,72,6,-73,69.847
1988,-607,187,79,4,-71,69.857
1972,-612,178,99,4,-70,69.867
1963,-604,177,101,-8,-58,69.877
1970,-596,174,120,-17,-54,69.887
1971,-601,185,132,-13,-35,69.897
1966,-608,195,140,-17,-33,69.907
1980,-590,192,127,-18,-21,69.917
1968,-580,180,95,-7,-15,69.927
1976,-581,198,63,5,-6,69.937
1972,-583,182,28,18,-3,69.947
1971,-580,184,-3,24,0,69.957
1968,-591,187,-18,31,-11,69.967
1976,-596,192,-18,36,-7,69.977
1979,-603,194,2,28,-7,69.987
1975,-610,183,33,21,-13,69.997
1979,-610,185,68,10,-20,70.007
1972,-594,190,100,7,-15,70.017
1980,-594,201,116,2,-17,70.027
1971,-585,186,116,0,-10,70.037
1965,-586,201,113,-5,-15,70.047
1980,-588,189,103,3,-18,70.057
1975,-587,197,87,3,-7,70.067
1977,-585,193,89,0,-15,70.077
1980,-593,202,98,-6,-12,70.087
1962,-605,191,111,-14,-30,70.097
1969,-600,193,138,-8,-28,70.107
1969,-597,193,173,-21,-37,70.117
1970,-606,185,198,-29,-49,70.127
1973,-595,204,231,-35,-45,70.137
1973,-604,197,254,-32,-35,70.147
1979,-598,202,267,-42,-43,70.157
1976,-585,195,261,-33,-34,70.167
1979,-575,206,243,-35,-30,70.177
1977,-564,201,200,-17,-22,70.187
1990,-572,183,149,2,-20,70.197
1982,-577,186,93,7,-21,70.207
1987,-572,186,48,26,-13,70.217
1984,-584,201,23,32,-17,70.227
1978,-588,195,7,46,-15,70.237
1968,-594,200,30,40,-18,70.247
1964,-606,197,54,30,-17,70.257
1968,-598,194,96,23,-18,70.267
1983,-594,195,117,20,-22,70.277
1978,-591,194,126,16,-33,70.287
1982,-594,185,144,13,-46,70.297
1982,-582,180,142,11,-52,70.307
1994,-589,180,132,20,-58,70.317
1986,-583,190,114,19,-52,70.327
1971,-592,198,107,27,-49,70.337
1975,-591,180,109,16,-48,70.347
1971,-596,184,117,18,-46,70.357
1962,-605,195,134,21,-34,70.367
1975,-600,208,147,26,-30,70.377
1973,-599,198,164,17,-15,70.387
1966,-597,190,172,6,-9,70.397
1972,-591,176,182,6,-8,70.407
1970,-590,194,189,7,-8,70.417
1969,-580,181,189,11,-13,70.427
1973,-595,175,192,10,-12,70.437
1988,-599,178,191,16,-6,70.447
1976,-593,184,189,7,-9,70.457
1980,-577,197,168,14,-18,70.467
1968,-575,185,144,23,-5,70.477
1966,-578,183,113,25,-6,70.487
1960,-580,175,84,24,-4,70.497
1966,-587,185,60,43,-11,70.507
1969,-593,200,57,35,-1,70.517
1965,-602,185,55,39,-11,70.527
1968,-605,189,63,29,-14,70.537
1966,-613,178,94,43,-10,70.547
1962,-613,198,110,24,-6,70.557
1970,-594,189,117,20,-9,70.567
1963,-595,187,117,16,-4,70.577
1964,-595,190,118,12,-6,70.587
1959,-591,179,90,17,-2,70.597
1957,-577,188,78,32,2,70.607
1967,-596,197,62,29,2,70.617
1958,-593,192,47,45,2,70.627
1967,-603,178,39,38,2,70.637
1965,-600,200,29,36,6,70.647
1968,-609,191,42,41,0,70.657
1968,-605,198,45,47,3,70.667
1969,-612,190,55,37,9,70.677
1961,-602,204,54,42,12,70.687
1972,-605,174,60,32,17,70.697
1970,-604,192,61,38,17,70.707
1978,-596,179,44,37,20,70.717
1962,-599,179,35,40,31,70.727
1968,-600,177,42,27,15,70.737
1949,-594,176,43,22,26,70.747
1957,-595,172,46,29,12,70.757
1964,-594,182,37,23,11,70.767
1964,-599,181,35,17,16,70.777
1973,-600,179,51,23,4,70.787
1968,-604,171,66,23,-5,70.797
1968,-597,179,71,12,-21,70.807
1962,-595,180,82,12,-22,70.817
1967,-605,182,90,3,-30,70.827
1960,-591,184,99,-5,-34,70.837
1972,-603,171,102,-13,-28,70.847
1970,-599,177,103,-12,-26,70.857
1964,-592,181,107,-20,-28,70.867
1967,-592,178,95,-20,-28,70.877
1969,-590,175,76,-18,-32,70.887
1964,-597,186,54,-3,-34,70.897
1977,-603,187,43,-13,-31,70.907
1982,-599,191,38,-1,-49,70.917
1966,-598,186,37,-3,-39,70.927
1967,-596,197,33,-12,-34,70.937
1964,-600,198,16,-2,-36,70.947
1962,-590,180,15,-2,-42,70.957
1964,-603,207,11,-4,-51,70.967
1963,-600,181,9,-3,-56,70.977
1972,-599,179,5,-8,-57,70.987
1971,-609,184,18,-6,-60,70.997
1981,-601,185,17,-8,-74,71.007
1969,-610,192,11,-5,-79,71.017
1968,-611,181,15,-10,-82,71.027
1966,-605,203,20,-12,-90,71.037
1962,-604,204,11,-2,-95,71.047
1964,-606,209,11,-6,-84,71.057
1962,-601,204,12,-8,-87,71.067
1974,-600,198,10,-8,-89,71.077
1954,-612,198,10,-2,-89,71.087
1973,-609,198,16,6,-76,71.097
1977,-602,204,16,15,-85,71.107
1974,-604,192,0,13,-81,71.117
1970,-609,206,6,29,-71,71.127
1976,-607,200,14,27,-69,71.137
1975,-609,186,9,34,-59,71.147
1979,-610,192,1,38,-65,71.157
1982,-605,193,-9,42,-61,71.167
1970,-605,189,-18,49,-54,71.177
1971,-609,187,-32,60,-54,71.187
1973,-608,199,-33,65,-46,71.197
1979,-616,201,-41,64,-47,71.207
1965,-616,187,-38,61,-46,71.217
1966,-612,192,-36,58,-52,71.227
1972,-620,185,-38,64,-46,71.237
1975,-619,174,-23,64,-51,71.247
1967,-619,180,-31,66,-55,71.257
1964,-616,199,-26,69,-54,71.267
1965,-614,181,-27,66,-61,71.277
1961,-618,178,-31,71,-59,71.287
1956,-617,188,-31,61,-62,71.297
1961,-628,177,-37,72,-59,71.307
1960,-623,187,-30,60,-63,71.317
1973,-622,164,-26,59,-68,71.327
1965,-627,176,-11,54,-65,71.337
1972,-626,164,-4,53,-74,71.347
1967,-629,167,9,47,-69,71.357
1962,-633,166,20,40,-68,71.367
1955,-626,173,24,26,-77,71.377
1966,-630,159,31,27,-69,71.387
1968,-636,160,42,26,-70,71.397
1971,-623,169,42,23,-62,71.407
1969,-632,172,55,28,-59,71.417
1967,-623,164,57,13,-50,71.427
1966,-616,183,58,16,-48,71.437
1968,-624,182,63,1,-46,71.447
1970,-631,181,74,5,-29,71.457
1973,-628,176,76,0,-27,71.467
1975,-624,196,82,8,-12,71.477
1971,-621,182,87,0,-4,71.487
1977,-622,195,93,-6,0,71.497
1978,-612,190,101,-4,4,71.507
1972,-617,201,111,4,6,71.517
1973,-609,199,99,9,19,71.527
1973,-607,197,97,11,25,71.537
1972,-616,195,89,13,32,71.547
1970,-606,200,92,19,28,71.557
1979,-603,219,95,22,27,71.567
1966,-601,224,98,23,30,71.577
1971,-610,204,104,14,31,71.587
1968,-597,191,124,29,29,71.597
1978,-604,211,122,26,27,71.607
1974,-598,205,134,27,21,71.617
1970,-601,202,144,25,4,71.627
1980,-592,215,153,34,9,71.637
1967,-588,208,156,36,-1,71.647
1968,-587,214,164,35,-11,71.657
1968,-589,197,151,39,-13,71.667
1963,-592,205,138,43,-17,71.677
1979,-590,202,148,53,-35,71.687
1980,-594,206,130,58,-41,71.697
1975,-588,205,127,52,-42,71.707
1972,-593,201,123,59,-62,71.717
1966,-584,182,129,52,-64,71.727
1969,-603,199,134,44,-83,71.737
1970,-599,175,147,49,-91,71.747
1966,-595,180,150,50,-97,71.757
1968,-598,195,164,52,-103,71.767
1963,-600,196,174,35,-104,71.777
1968,-598,178,169,39,-98,71.787
1974,-597,184,150,38,-91,71.797
1970,-600,188,138,38,-86,71.807
1965,-596,187,117,45,-79,71.817
1973,-606,180,103,41,-82,71.827
1963,-598,184,106,45,-70,71.837
1965,-607,182,105,37,-64,71.847
1966,-609,182,111,34,-61,71.857
1964,-623,192,131,34,-56,71.867
1959,-613,177,141,26,-51,71.877
1955,-613,168,153,34,-45,71.887
1962,-608,193,141,29,-39,71.897
1957,-594,182,130,19,-37,71.907
1947,-600,175,121,23,-40,71.917
1951,-604,170,96,23,-22,71.927
1965,-608,183,98,30,-24,71.937
1961,-606,171,92,23,-22,71.947
1956,-613,177,87,22,-18,71.957
1953,-602,174,96,13,-17,71.967
1956,-605,175,101,16,-13,71.977
1952,-608,186,105,13,-9,71.987
1952,-605,179,111,15,-11,71.997
1950,-605,170,110,5,-20,72.007
1957,-608,183,107,1,-11,72.017
1954,-604,186,103,3,1,72.027
1955,-602,192,104,-6,-10,72.037
1952,-606,174,99,0,-7,72.047
1951,-603,186,97,-3,-3,72.057
1951,-603,169,99,-5,2,72.067
1952,-600,168,86,0,2,72.077
1965,-601,181,63,-11,10,72.087
1965,-605,169,66,-3,22,72.097
1966,-615,163,66,-11,23,72.107
1971,-610,186,59,-12,20,72.117
1973,-609,162,65,-19,28,72.127
1980,-600,167,66,-19,37,72.137
1977,-606,181,54,-24,33,72.147
1978,-594,179,47,-20,40,72.157
1972,-596,173,40,-25,34,72.167
1970,-589,184,33,-20,48,72.177
1964,-594,173,31,-20,46,72.187
1976,-599,183,26,-13,51,72.197
1969,-599,194,15,-17,40,72.207
1973,-598,170,18,-10,38,72.217
1974,-601,186,12,-17,35,72.227
1970,-595,180,13,-17,25,72.237
1980,-591,171,14,-18,20,72.247
1978,-596,176,17,-10,10,72.257
1980,-598,188,30,-19,1,72.267
1976,-589,168,33,-21,-4,72.277
1977,-595,182,35,-23,-13,72.287
1993,-595,186,34,-21,-12,72.297
1973,-597,183,53,-16,-21,72.307
1978,-599,193,48,-28,-32,72.317
1975,-596,192,62,-23,-42,72.327
1977,-593,199,63,-30,-47,72.337
1979,-591,221,70,-19,-51,72.347
1972,-587,209,57,-11,-52,72.357
1970,-590,200,45,-11,-55,72.367
1971,-588,206,34,-6,-54,72.377
1970,-587,192,11,6,-64,72.387
1964,-589,190,-8,17,-65,72.397
1984,-593,197,-18,26,-77,72.407
1987,-609,198,-25,42,-80,72.417
1991,-606,194,-19,41,-91,72.427
1982,-608,185,-11,32,-93,72.437
1980,-612,193,3,34,-96,72.447
1974,-611,183,24,31,-100,72.457
1972,-601,169,45,24,-104,72.467
1979,-609,180,59,13,-112,72.477
1984,-609,190,67,29,-116,72.487
1970,-609,191,57,22,-117,72.497
1957,-601,169,53,24,-123,72.507
1960,-608,197,35,37,-120,72.517
1962,-601,176,22,45,-128,72.527
1964,-613,181,24,33,-129,72.537
1964,-612,186,21,33,-129,72.547
1967,-618,185,30,44,-136,72.557
1975,-618,172,40,32,-128,72.567
1969,-634,176,54,39,-124,72.577
1965,-625,175,69,31,-122,72.587
1978,-626,174,75,34,-120,72.597
1966,-619,182,89,30,-119,72.607
1960,-616,164,74,31,-115,72.617
1972,-626,176,66,20,-105,72.627
1966,-627,181,60,21,-95,72.637
1958,-628,172,57,34,-95,72.647
1969,-641,168,56,29,-91,72.657
1962,-628,146,51,36,-79,72.667
1974,-640,161,62,40,-77,72.677
1975,-640,164,71,33,-77,72.687
1974,-633,172,76,33,-71,72.697
1970,-637,173,80,35,-63,72.707
1963,-630,172,99,27,-59,72.717
1961,-641,169,96,25,-51,72.727
1967,-629,178,101,24,-45,72.737
1961,-623,164,96,22,-36,72.747
1970,-629,158,89,19,-41,72.757
1964,-631,180,87,15,-37,72.767
1972,-626,188,88,19,-22,72.777
1965,-621,180,89,23,-15,72.787
1969,-633,184,84,23,-11,72.797
1956,-635,183,88,21,-9,72.807
1966,-632,166,101,25,-5,72.817
1966,-635,182,114,22,8,72.827
1959,-627,195,126,16,16,72.837
1959,-629,184,137,29,26,72.847
1961,-626,178,142,11,27,72.857
1955,-622,177,161,7,27,72.867
1958,-630,189,164,8,30,72.877
1968,-617,184,163,13,36,72.887
1963,-621,188,163,6,42,72.897
1970,-615,196,159,23,50,72.907
1969,-610,186,152,19,53,72.917
1976,-618,192,135,25,52,72.927
1973,-613,189,127,22,57,72.937
1971,-618,194,135,35,56,72.947
1975,-621,190,143,35,57,72.957
1967,-609,202,156,26,64,72.967
1969,-614,181,165,26,65,72.977
1971,-615,193,175,20,73,72.987
1973,-613,180,176,21,70,72.997
1971,-604,190,180,22,61,73.007
1975,-599,188,178,40,61,73.017
1965,-590,185,175,23,57,73.027
1966,-601,194,165,30,59,73.037
1971,-595,174,167,37,48,73.047
1962,-603,179,170,37,40,73.057
1961,-596,189,172,31,30,73.067
1961,-596,196,184,31,18,73.077
1961,-600,190,191,35,7,73.087
1953,-603,190,195,24,0,73.097
1951,-596,184,197,14,-11,73.107
1957,-596,178,199,24,-10,73.117
1962,-601,175,187,15,-23,73.127
1968,-605,180,190,17,-34,73.137
1971,-611,179,198,22,-47,73.147
1972,-599,174,194,15,-58,73.157
1978,-602,174,180,13,-49,73.167
1977,-605,170,171,15,-60,73.177
1977,-599,167,163,14,-54,73.187
1970,-608,176,147,20,-61,73.197
1960,-608,178,132,15,-57,73.207
1957,-602,183,108,21,-49,73.217
1963,-601,170,101,12,-46,73.227
1964,-610,173,85,16,-42,73.237
1958,-604,173,85,15,-40,73.247
1958,-610,178,85,25,-46,73.257
1963,-611,173,81,15,-47,73.267
1972,-616,169,84,11,-45,73.277
1967,-615,173,86,12,-49,73.287
1970,-610,162,75,5,-63,73.297
1970,-609,162,70,-2,-58,73.307
1962,-616,172,65,11,-70,73.317
1959,-610,163,68,-6,-64,73.327
1949,-606,169,72,-7,-62,73.337
1958,-609,155,69,-23,-71,73.347
1957,-617,155,68,-19,-72,73.357
1958,-623,180,58,-29,-72,73.367
1967,-629,168,75,-32,-71,73.377
1954,-617,186,74,-35,-73,73.387
1967,-612,166,79,-39,-73,73.397
1962,-616,170,87,-35,-69,73.407
1959,-626,177,74,-41,-66,73.417
1964,-616,175,80,-37,-62,73.427
1959,-612,186,74,-44,-62,73.437
1959,-607,188,72,-47,-48,73.447
1960,-614,174,63,-36,-52,73.457
1963,-607,184,54,-40,-49,73.467
1963,-605,181,33,-31,-46,73.477
1971,-602,177,34,-23,-43,73.487
1965,-602,178,19,-23,-43,73.497
1968,-593,178,20,-26,-35,73.507
1966,-612,169,27,-26,-41,73.517
1972,-614,164,26,-24,-47,73.527
1982,-609,173,34,-18,-47,73.537
1982,-610,173,40,-21,-51,73.547
1971,-606,172,45,-16,-58,73.557
1978,-603,175,42,-19,-55,73.567
1977,-590,182,26,-7,-51,73.577
1974,-600,184,14,-12,-63,73.587
1973,-600,184,10,-5,-61,73.597
1968,-602,186,1,6,-62,73.607
1969,-611,195,-3,-2,-67,73.617
1965,-607,177,4,-1,-61,73.627
1971,-604,172,9,10,-69,73.637
1966,-610,191,13,10,-70,73.647
1972,-614,174,18,8,-76,73.657
1970,-611,198,28,13,-78,73.667
1974,-609,185,28,7,-91,73.677
1968,-612,169,26,24,-89,73.687
1977,-614,176,30,21,-92,73.697
1975,-616,179,15,25,-79,73.707
1964,-620,179,9,45,-90,73.717
1978,-613,191,-7,36,-80,73.727
1981,-623,176,0,42,-76,73.737
1983,-623,180,5,45,-73,73.747
1971,-623,174,8,35,-68,73.757
1974,-621,183,17,47,-64,73.767
1972,-618,187,20,49,-54,73.777
1970,-615,191,21,42,-51,73.787
1959,-621,174,27,52,-47,73.797
1969,-610,160,24,52,-50,73.807
1975,-607,179,4,54,-39,73.817
1979,-609,171,1,66,-49,73.827
1971,-622,165,-9,68,-52,73.837
1968,-623,177,-12,69,-62,73.847
1972,-620,175,5,67,-61,73.857
1964,-637,178,27,62,-62,73.867
1962,-632,172,41,62,-61,73.877
1960,-629,172,52,45,-62,73.887
1966,-626,170,63,56,-69,73.897
1962,-624,170,72,54,-56,73.907
1952,-619,159,66,42,-53,73.917
1960,-612,173,68,41,-39,73.927
1960,-621,172,58,50,-35,73.937
1958,-616,160,40,53,-24,73.947
1966,-617,174,37,48,-16,73.957
1961,-621,178,39,47,-24,73.967
1959,-614,157,53,47,-15,73.977
1953,-623,172,56,37,-17,73.987
1975,-624,160,61,37,-22,73.997
1960,-620,175,70,20,-14,74.007
1963,-621,157,84,29,-15,74.017
1962,-615,162,79,32,-17,74.027
1959,-617,162,67,19,-17,74.037
1960,-620,174,74,18,-15,74.047
1966,-613,166,69,17,-16,74.057
1964,-624,183,71,11,-9,74.067
1966,-621,162,66,26,-3,74.077
1968,-611,165,75,16,-7,74.087
1966,-610,166,81,17,-1,74.097
1973,-609,166,91,17,1,74.107
1964,-625,172,82,11,3,74.117
1967,-604,185,87,6,-2,74.127
1968,-614,182,76,16,-1,74.137
1956,-614,178,84,11,-1,74.147
1965,-609,179,75,11,-2,74.157
1971,-596,185,77,13,2,74.167
1966,-610,177,83,1,-1,74.177
1964,-600,177,92,18,-11,74.187
1977,-599,186,91,20,-7,74.197
1969,-598,171,78,23,-22,74.207
1980,-600,183,78,26,-17,74.217
1975,-598,177,78,18,-16,74.227
1968,-606,182,75,25,-21,74.237
1972,-595,167,69,16,-22,74.247
1974,-607,171,67,21,-19,74.257
1969,-605,163,68,20,-13,74.267
1974,-607,169,62,20,-19,74.277
1962,-603,181,58,18,-24,74.287
1974,-597,169,56,21,-13,74.297
1976,-607,155,50,30,-27,74.307
1971,-599,176,37,30,-29,74.317
1959,-598,176,39,33,-37,74.327
1968,-598,176,38,33,-38,74.337
1970,-607,163,38,31,-36,74.347
1962,-604,164,30,27,-43,74.357
1964,-607,161,37,20,-51,74.367
1978,-604,157,29,17,-57,74.377
1969,-602,162,39,21,-59,74.387
1969,-608,160,43,12,-72,74.397
1964,-605,163,38,16,-71,74.407
1962,-609,181,46,9,-88,74.417
1967,-609,175,55,16,-78,74.427
1960,-602,169,45,5,-76,74.437
1971,-610,160,42,10,-89,74.447
1966,-599,164,45,13,-83,74.457
1965,-611,164,39,1,-89,74.467
1973,-616,182,46,16,-84,74.477
1971,-617,155,30,12,-87,74.487
1955,-607,155,30,7,-90,74.497
1963,-615,168,36,14,-75,74.507
1965,-606,167,30,11,-63,74.517
1971,-623,159,38,9,-61,74.527
1967,-609,166,23,7,-54,74.537
1965,-616,152,23,11,-58,74.547
1963,-622,152,33,-4,-62,74.557
1967,-618,163,35,7,-64,74.567
1963,-622,157,51,-10,-63,74.577
1967,-627,167,65,-15,-66,74.587
1967,-632,163,84,-24,-71,74.597
1971,-631,166,97,-17,-70,74.607
1963,-628,160,111,-14,-69,74.617
1963,-622,171,120,-17,-62,74.627
1960,-616,170,103,-11,-47,74.637
1969,-613,181,98,-9,-38,74.647
1966,-616,178,78,-11,-34,74.657
1979,-619,175,61,-14,-22,74.667
1975,-611,164,54,2,-16,74.677
1973,-618,180,48,2,-18,74.687
1967,-619,175,49,19,-8,74.697
1974,-613,159,42,11,-11,74.707
1976,-616,173,53,8,-5,74.717
1970,-613,167,57,27,1,74.727
1973,-613,179,60,25,-11,74.737
1970,-610,168,51,25,-23,74.747
1968,-610,172,50,19,-24,74.757
1982,-606,169,44,24,-21,74.767
1966,-616,176,49,32,-27,74.777
1964,-614,178,52,31,-36,74.787
1968,-612,172,50,39,-30,74.797
1968,-618,167,69,38,-47,74.807
1975,-610,172,79,28,-51,74.817
1970,-616,168,80,30,-55,74.827
1965,-606,167,88,33,-49,74.837
1964,-611,175,85,42,-50,74.847
1959,-602,169,86,33,-54,74.857
1963,-610,166,78,32,-45,74.867
1967,-613,161,81,38,-47,74.877
1963,-617,184,76,40,-48,74.887
1970,-615,155,87,29,-45,74.897
1964,-614,155,73,32,-40,74.907
1962,-619,168,75,38,-46,74.917
1960,-622,156,84,25,-47,74.927
1970,-620,163,87,39,-42,74.937
1970,-618,158,87,37,-42,74.947
1967,-616,157,86,30,-50,74.957
1965,-615,150,79,30,-30,74.967
1967,-625,159,86,27,-37,74.977
1967,-614,165,80,31,-25,74.987
1972,-618,161,71,29,-22,74.997
1966,-619,162,81,35,-24,75.007
1968,-627,170,76,34,-22,75.017
1972,-618,162,78,33,-8,75.027
1967,-623,161,85,32,-9,75.037
1961,-621,158,77,40,-8,75.047
1967,-618,173,87,32,-6,75.057
1961,-609,163,86,32,-8,75.067
1961,-615,153,86,27,-12,75.077
1964,-610,163,90,20,-13,75.087
1960,-612,170,91,12,-22,75.097
1967,-605,159,93,19,-11,75.107
1963,-607,168,88,17,-20,75.117
1963,-609,159,88,26,-22,75.127
1959,-601,172,74,30,-25,75.137
1970,-608,158,70,19,-17,75.147
1974,-608,170,67,26,-19,75.157
1964,-613,151,72,37,-17,75.167
1965,-617,173,58,36,-18,75.177
1971,-612,162,65,25,-11,75.187
1970,-613,161,76,28,-18,75.197
1974,-613,175,83,32,-22,75.207
1970,-612,162,85,17,-20,75.217
1967,-602,164,72,31,-22,75.227
1972,-596,166,69,38,-29,75.237
1974,-598,141,61,34,-23,75.247
1985,-603,167,54,32,-25,75.257
1979,-604,160,53,40,-43,75.267
1970,-612,157,58,32,-43,75.277
1965,-605,158,73,18,-48,75.287
1978,-621,168,93,21,-55,75.297
1981,-608,172,116,10,-57,75.307
1962,-599,160,124,8,-64,75.317
1973,-613,162,131,6,-64,75.327
1960,-604,161,136,3,-68,75.337
1956,-597,175,136,8,-73,75.347
1957,-595,181,136,-1,-70,75.357
1964,-597,176,122,0,-61,75.367
1971,-602,178,124,7,-69,75.377
1979,-610,177,117,9,-62,75.387
1974,-616,177,125,11,-66,75.397
1981,-605,166,130,24,-62,75.407
1986,-609,172,123,16,-63,75.417
1979,-618,191,129,26,-55,75.427
1985,-621,176,130,24,-57,75.437
1973,-612,189,139,22,-46,75.447
1978,-611,181,131,23,-44,75.457
1965,-602,183,120,32,-44,75.467
1977,-609,188,120,43,-43,75.477
1973,-620,191,121,40,-40,75.487
1970,-618,179,124,42,-45,75.497
1975,-599,198,115,51,-56,75.507
1979,-605,183,111,56,-49,75.517
1967,-609,186,106,58,-47,75.527
1971,-614,193,109,72,-53,75.537
1971,-612,175,121,71,-49,75.547
1961,-618,194,128,57,-46,75.557
1964,-617,182,130,65,-49,75.567
1966,-612,170,127,68,-45,75.577
1959,-615,188,124,68,-43,75.587
1966,-614,180,129,76,-35,75.597
1966,-620,174,118,73,-36,75.607
1965,-618,182,109,87,-32,75.617
1967,-617,183,101,86,-32,75.627
1974,-612,172,103,79,-27,75.637
1971,-616,175,90,91,-27,75.647
1969,-621,183,96,92,-25,75.657
1973,-617,173,103,89,-21,75.667
1968,-621,176,114,81,-16,75.677
1961,-611,181,120,73,-18,75.687
1970,-615,168,118,67,-18,75.697
1968,-605,180,116,68,-17,75.707
1959,-606,177,110,69,-17,75.717
1957,-610,171,109,59,-17,75.727
1960,-612,187,98,61,-23,75.737
1959,-611,188,96,57,-29,75.747
1954,-610,179,91,57,-23,75.757
1955,-605,174,100,57,-27,75.767
1966,-609,179,104,58,-31,75.777
1960,-615,174,109,48,-35,75.787
1960,-608,180,110,48,-34,75.797
1962,-614,185,112,52,-31,75.807
1957,-608,183,104,40,-41,75.817
1964,-611,186,104,39,-35,75.827
1963,-616,180,96,26,-33,75.837
1959,-611,194,97,34,-33,75.847
1965,-610,184,93,32,-31,75.857
1956,-608,167,85,28,-34,75.867
1951,-617,180,79,34,-23,75.877
1954,-617,172,84,33,-19,75.887
1965,-605,181,91,32,-16,75.897
1962,-618,180,104,17,-13,75.907
1961,-611,184,107,23,-17,75.917
1960,-614,191,106,21,-17,75.927
1963,-611,197,101,27,-16,75.937
1950,-606,185,97,14,-20,75.947
1958,-605,187,89,21,-13,75.958
1952,-612,184,79,23,-8,75.967
1970,-612,179,64,22,-13,75.978
1973,-615,174,58,17,-9,75.988
1970,-613,189,59,23,-14,75.998
1966,-618,195,62,27,-11,76.008
1965,-611,188,63,25,-24,76.018
1969,-606,187,80,20,-22,76.028
1953,-611,184,76,14,-17,76.038
1951,-618,188,89,12,-13,76.048
1949,-616,193,92,9,-21,76.058
1942,-602,192,89,18,-10,76.068
1956,-598,197,89,23,-13,76.078
1962,-602,213,70,22,-12,76.088
1963,-599,168,68,20,-8,76.098
1964,-605,190,58,30,-12,76.108
1967,-607,187,54,29,-12,76.118
1964,-613,179,47,24,-23,76.128
1971,-606,172,53,30,-20,76.138
1965,-608,178,51,25,-24,76.148
1977,-620,172,54,22,-24,76.158
1969,-606,193,64,17,-26,76.168
1968,-608,174,53,19,-18,76.178
1967,-600,169,43,9,-20,76.188
1975,-601,167,45,18,-17,76.198
1968,-604,175,27,20,-13,76.208
1969,-610,175,28,16,-16,76.218
1966,-609,185,16,7,-19,76.228
1965,-607,179,20,13,-28,76.238
1964,-609,191,31,21,-36,76.248
1961,-611,188,25,20,-36,76.258
1953,-607,178,32,4,-47,76.268
1962,-607,177,38,5,-51,76.278
1959,-609,177,36,4,-55,76.288
1963,-605,174,29,8,-63,76.298
1967,-596,173,23,8,-56,76.308
1967,-607,171,10,16,-58,76.318
1970,-612,187,-11,22,-57,76.328
1964,-606,172,-22,26,-58,76.338
1966,-611,177,-34,28,-48,76.348
1968,-614,191,-35,28,-57,76.358
1964,-619,191,-40,34,-55,76.368
1971,-614,169,-32,33,-51,76.378
1970,-618,181,-24,29,-47,76.388
1975,-617,188,-30,32,-46,76.398
1969,-617,185,-31,30,-41,76.408
1972,-617,174,-41,33,-36,76.418
1969,-620,180,-48,36,-37,76.428
1970,-623,189,-49,37,-42,76.438
1966,-618,173,-60,34,-41,76.448
1972,-617,183,-63,47,-35,76.458
1972,-628,187,-58,38,-36,76.468
1974,-624,188,-63,37,-43,76.478
1970,-631,202,-62,48,-33,76.488
1974,-633,196,-52,51,-39,76.498
1963,-627,202,-47,61,-41,76.508
1961,-626,199,-42,57,-44,76.518
1968,-624,186,-42,61,-40,76.528
1964,-628,204,-43,57,-35,76.538
1970,-628,197,-38,61,-40,76.548
1965,-630,193,-39,63,-39,76.558
1968,-629,185,-40,56,-32,76.568
1956,-627,173,-35,61,-31,76.578
1968,-618,206,-32,66,-39,76.588
1963,-631,182,-38,67,-41,76.598
1961,-629,185,-35,69,-56,76.608
1972,-631,184,-26,57,-53,76.618
1965,-626,174,-21,73,-46,76.628
1968,-633,173,-10,67,-54,76.638
1963,-630,185,-7,59,-48,76.648
1964,-630,187,0,58,-41,76.658
1961,-620,187,-4,57,-36,76.668
1974,-631,175,-13,61,-37,76.678
1980,-633,180,-14,57,-49,76.688
1981,-635,180,-16,66,-45,76.698
1975,-630,180,-12,44,-43,76.708
1982,-631,183,-1,59,-57,76.718
1976,-638,190,15,50,-59,76.728
1973,-633,175,32,42,-66,76.738
1970,-627,184,32,49,-60,76.748
1964,-632,193,37,49,-60,76.758
1958,-623,195,37,42,-55,76.768
1958,-627,196,26,38,-45,76.778
1964,-622,204,26,41,-53,76.788
1963,-623,202,31,44,-42,76.798
1971,-627,192,26,47,-36,76.808
1953,-632,189,41,51,-39,76.818
1957,-621,187,52,46,-48,76.828
1969,-620,186,59,43,-47,76.838
1960,-626,203,52,50,-49,76.848
1960,-635,205,71,59,-54,76.858
1973,-630,191,81,46,-62,76.868
1968,-628,188,82,39,-59,76.878
1959,-622,192,88,47,-56,76.888
1967,-620,199,77,53,-54,76.898
1971,-620,190,90,60,-54,76.908
1964,-629,179,82,52,-50,76.918
1965,-628,187,92,47,-50,76.928
1965,-624,176,97,60,-38,76.938
1965,-620,201,96,57,-38,76.948
1963,-623,193,108,56,-29,76.958
1964,-626,204,97,53,-41,76.968
1958,-621,181,106,62,-38,76.978
1957,-622,192,112,51,-43,76.988
1963,-615,195,116,51,-40,76.998
1961,-615,195,116,48,-50,77.008
1966,-618,181,112,57,-44,77.018
1955,-614,187,122,51,-42,77.028
1960,-624,200,110,59,-37,77.038
1963,-611,173,117,61,-30,77.048
1960,-620,186,108,59,-30,77.058
1967,-628,188,105,57,-31,77.068
1965,-617,190,95,53,-26,77.078
1977,-619,184,99,50,-22,77.088
1968,-619,188,100,55,-19,77.098
1959,-614,194,109,52,-25,77.108
1963,-612,185,107,50,-21,77.118
1957,-614,180,105,43,-30,77.128
1950,-613,173,106,36,-22,77.138
1960,-613,195,96,46,-31,77.148
1956,-607,186,88,35,-26,77.158
1946,-607,198,88,40,-26,77.168
1951,-608,189,93,36,-32,77.178
1950,-609,172,90,41,-33,77.188
1946,-615,179,85,34,-21,77.198
1957,-612,182,90,36,-36,77.208
1953,-612,177,95,21,-36,77.218
1967,-612,184,105,24,-31,77.228
1964,-608,172,95,30,-27,77.238
1966,-611,182,80,30,-22,77.248
1967,-599,181,72,22,-17,77.258
1956,-609,187,59,31,-17,77.268
1963,-601,191,41,21,-9,77.278
1958,-600,191,34,28,-5,77.288
1965,-610,175,28,40,-5,77.298
1966,-608,177,16,41,2,77.308
1960,-612,191,10,38,2,77.318
1965,-602,195,14,29,-9,77.328
1952,-606,175,10,44,-22,77.338
1952,-608,179,20,30,-18,77.348
1952,-603,192,26,24,-30,77.358
1938,-606,182,15,30,-30,77.368
1950,-602,183,15,25,-37,77.378
1958,-615,182,5,15,-37,77.388
1961,-609,188,3,17,-49,77.398
1960,-623,183,7,11,-65,77.408
1961,-619,167,11,1,-65,77.418
1965,-621,185,17,1,-70,77.428
1972,-632,206,38,-10,-76,77.438
1964,-625,163,47,-6,-77,77.448
1962,-606,180,67,-12,-99,77.458
1944,-619,195,14,-18,-83,77.468
1950,-629,185,11,-14,-93,77.478
1964,-626,179,9,-12,-78,77.488
1951,-624,172,20,-10,-76,77.498
1962,-621,178,13,-37,-64,77.508
1966,-622,197,3,-30,-53,77.518
1959,-632,191,3,-27,-59,77.528
1966,-637,194,12,-28,-45,77.538
1962,-634,176,26,-36,-55,77.548
1969,-631,178,37,-37,-59,77.558
1975,-641,217,42,-33,-64,77.568
1970,-648,204,56,-29,-76,77.578
1977,-634,210,67,-27,-75,77.588
1967,-632,201,68,-33,-70,77.598
1963,-627,201,76,-23,-57,77.608
1965,-626,205,67,-15,-45,77.618
1965,-639,220,51,-9,-35,77.628
1967,-633,214,46,-7,-32,77.638
1974,-627,215,31,3,-10,77.648
1972,-626,195,33,13,1,77.658
1972,-617,206,25,20,0,77.668
1961,-626,208,23,20,3,77.678
1963,-623,195,27,29,9,77.688
1963,-627,203,28,30,-5,77.698
1962,-620,206,42,34,-4,77.708
1958,-625,200,57,15,-6,77.718
1958,-620,203,52,23,-10,77.728
1963,-619,184,58,33,-12,77.738
1955,-614,189,62,29,-25,77.748
1958,-612,185,63,26,-24,77.758
1960,-616,179,70,25,-30,77.768
1951,-622,195,75,30,-41,77.778
1966,-621,193,88,23,-42,77.788
1975,-625,199,94,11,-40,77.798
1963,-629,186,101,19,-44,77.808
1967,-619,180,106,20,-37,77.818
1973,-616,183,108,9,-48,77.828
1967,-618,182,106,7,-51,77.838
1960,-614,177,97,0,-49,77.848
1960,-611,178,93,8,-50,77.858
1967,-617,188,92,2,-49,77.868
1966,-616,188,91,3,-55,77.878
1952,-623,185,94,6,-54,77.888
1956,-626,183,102,1,-59,77.898
1952,-632,196,106,2,-63,77.908
1962,-625,184,113,-6,-61,77.918
1965,-627,188,114,3,-61,77.928
1964,-625,175,117,-8,-68,77.938
1971,-626,181,117,-8,-63,77.948
1969,-624,180,118,3,-67,77.958
1966,-629,192,117,-8,-62,77.968
1973,-628,181,116,-4,-58,77.978
1971,-622,189,105,8,-42,77.988
1963,-633,208,106,20,-40,77.998
1966,-618,188,109,8,-40,78.008
1972,-628,182,109,15,-34,78.018
1980,-626,194,117,22,-32,78.028
1979,-626,193,113,24,-33,78.038
1969,-628,212,117,27,-21,78.048
1973,-626,194,119,29,-38,78.058
1971,-615,200,124,29,-28,78.068
1961,-616,199,110,39,-22,78.078
1966,-619,190,98,36,-23,78.088
1967,-615,194,102,43,-22,78.098
1970,-618,191,81,51,-17,78.108
1973,-620,191,83,49,-24,78.118
1960,-617,190,82,52,-22,78.128
1973,-614,191,85,53,-32,78.138
1972,-617,204,84,50,-37,78.148
1962,-622,194,92,49,-30,78.158
1968,-626,186,103,57,-40,78.168
1965,-629,187,114,51,-42,78.178
1959,-621,197,119,57,-39,78.188
1949,-611,178,111,49,-41,78.198
1961,-617,196,102,52,-37,78.208
1956,-613,172,95,60,-30,78.218
1956,-614,184,87,56,-31,78.228
1955,-618,187,81,51,-31,78.238
1952,-616,187,69,57,-24,78.248
1955,-618,178,69,60,-34,78.258
1961,-624,190,76,63,-31,78.268
1970,-622,188,74,53,-27,78.278
1966,-630,171,75,55,-24,78.288
1963,-613,156,74,42,-30,78.298
1974,-627,173,79,55,-21,78.308
1966,-627,169,77,53,-24,78.318
1962,-607,176,68,45,-12,78.328
1961,-614,185,55,31,-11,78.338
1957,-608,171,43,46,0,78.348
1965,-612,187,52,44,-4,78.358
1964,-622,179,44,44,-7,78.368
1966,-620,190,47,45,-11,78.378
1961,-615,170,41,43,-36,78.388
1960,-618,183,34,33,-41,78.398
1965,-612,192,52,36,-42,78.408
1957,-616,187,52,37,-38,78.418
1951,-610,200,62,30,-45,78.428
1954,-617,196,66,26,-50,78.438
1956,-620,198,66,30,-56,78.448
1958,-619,207,65,27,-56,78.458
1960,-621,193,52,28,-52,78.468
1953,-617,198,55,34,-53,78.478
1945,-622,202,56,27,-61,78.488
1960,-622,203,54,32,-58,78.498
1965,-631,197,63,34,-67,78.508
1961,-626,204,59,31,-58,78.518
1955,-623,186,73,29,-68,78.528
1960,-623,187,69,32,-64,78.538
1965,-634,191,81,20,-57,78.548
1973,-631,194,85,14,-63,78.558
1973,-637,189,84,25,-55,78.568
1960,-633,189,79,22,-52,78.578
1971,-632,199,71,22,-49,78.588
1958,-618,200,66,28,-44,78.598
1967,-612,196,59,35,-42,78.608
1961,-625,198,42,33,-42,78.618
1966,-626,206,43,39,-37,78.628
1968,-631,193,42,36,-37,78.638
1971,-625,205,45,41,-38,78.648
1952,-637,210,61,49,-37,78.658
1958,-626,194,59,44,-40,78.668
1962,-618,203,64,45,-36,78.678
1965,-631,211,68,44,-29,78.688
1965,-619,216,60,45,-33,78.698
1971,-622,192,58,50,-37,78.708
1956,-624,198,52,52,-30,78.718
1960,-620,193,58,52,-25,78.728
1970,-629,193,52,52,-31,78.738
1955,-625,193,51,44,-26,78.748
1954,-619,185,59,47,-26,78.758
1959,-623,193,64,44,-25,78.768
1960,-618,185,70,47,-30,78.778
1948,-613,187,66,49,-23,78.788
1959,-615,183,74,44,-22,78.798
1956,-606,193,54,41,-11,78.808
1971,-618,189,50,44,-22,78.818
1984,-609,175,53,48,-22,78.828
1956,-614,200,53,40,-27,78.838
1967,-616,189,59,34,-25,78.848
1969,-615,180,56,36,-38,78.858
1966,-614,185,70,16,-50,78.868
1962,-608,187,68,28,-37,78.878
1956,-612,183,64,38,-41,78.888
1950,-607,184,64,28,-44,78.898
1950,-606,203,58,34,-38,78.908
1947,-602,186,51,26,-38,78.918
1940,-603,191,51,16,-45,78.928
1948,-611,195,56,17,-51,78.938
1960,-609,206,52,23,-50,78.948
1958,-618,199,58,25,-49,78.958
1969,-612,192,63,12,-62,78.968
1957,-610,198,74,3,-61,78.978
1964,-615,204,84,4,-64,78.988
1971,-623,197,80,-4,-70,78.998
1975,-614,201,82,-6,-78,79.008
1964,-614,198,82,0,-69,79.018
1959,-616,190,73,-5,-73,79.028
1962,-611,185,68,-8,-62,79.038
1958,-623,203,59,1,-72,79.048
1960,-617,209,56,9,-72,79.058
1961,-621,200,61,15,-71,79.068
1968,-627,209,69,5,-69,79.078
1966,-618,204,65,9,-73,79.088
1961,-628,220,71,16,-79,79.098
1966,-625,197,88,13,-73,79.108
1964,-620,214,91,11,-78,79.118
1956,-618,210,98,11,-89,79.128
1963,-619,212,94,20,-77,79.138
1960,-627,206,93,19,-79,79.148
1959,-623,210,87,19,-70,79.158
1963,-620,200,79,10,-69,79.168
1974,-629,190,77,14,-63,79.178
1963,-631,187,78,19,-50,79.188
1958,-627,198,79,37,-53,79.198
1966,-635,206,80,29,-48,79.208
1962,-624,184,81,38,-38,79.218
1960,-633,196,79,34,-26,79.228
1965,-621,190,79,39,-26,79.238
1973,-619,182,69,37,-24,79.248
1959,-628,176,69,31,-21,79.258
1966,-617,174,69,37,-21,79.268
1978,-622,199,66,34,-15,79.278
1965,-622,187,71,28,-14,79.288
1969,-614,190,62,33,-11,79.298
1967,-615,187,59,41,-9,79.308
1968,-608,192,55,47,-9,79.318
1965,-613,192,50,41,-9,79.328
1963,-609,177,46,38,-6,79.338
1971,-605,175,39,33,-12,79.348
1967,-599,198,44,23,-14,79.358
1965,-606,181,40,13,-19,79.368
1967,-605,191,43,31,-22,79.378
1971,-604,187,57,25,-26,79.388
1965,-601,181,53,12,-26,79.398
1966,-595,176,57,18,-26,79.408
1960,-598,200,54,5,-29,79.418
1962,-597,180,37,17,-36,79.428
1961,-601,193,32,19,-36,79.438
1970,-598,191,35,9,-46,79.448
1958,-600,180,36,7,-48,79.458
1967,-598,190,42,20,-55,79.468
1955,-590,182,59,-3,-53,79.478
1962,-595,196,55,6,-60,79.488
1953,-590,193,45,10,-62,79.498
1961,-598,182,49,-3,-68,79.508
1973,-591,194,45,-5,-69,79.518
1974,-595,203,41,-5,-77,79.528
1984,-610,199,52,-13,-87,79.538
1977,-601,192,43,-7,-83,79.548
1979,-610,187,55,-1,-96,79.558
1971,-605,184,64,-2,-94,79.568
1970,-611,186,71,-5,-95,79.578
1967,-609,196,70,3,-97,79.588
1967,-599,177,66,4,-88,79.598
1962,-603,194,50,11,-70,79.608
1970,-594,201,37,4,-69,79.618
1964,-602,192,30,1,-50,79.628
1963,-601,196,12,8,-52,79.638
1975,-607,209,27,8,-51,79.648
1960,-610,187,19,14,-49,79.658
1965,-611,195,26,19,-48,79.668
1975,-604,191,29,23,-54,79.678
1966,-610,188,23,27,-58,79.688
1975,-605,198,31,30,-60,79.698
1976,-609,208,21,36,-59,79.708
1971,-613,190,26,32,-53,79.718
1969,-602,195,13,34,-64,79.728
1968,-609,194,18,32,-59,79.738
1976,-610,198,20,36,-56,79.748
1978,-623,194,24,31,-52,79.758
1967,-613,184,24,32,-49,79.768
1969,-609,185,29,37,-51,79.778
1966,-619,173,34,38,-43,79.788
1968,-616,186,31,37,-51,79.798
1958,-610,198,26,32,-52,79.808
1962,-623,197,25,37,-45,79.818
1952,-621,184,24,37,-41,79.828
1952,-624,184,21,40,-47,79.838
1965,-608,174,16,37,-44,79.848
1963,-621,204,5,39,-38,79.858
1969,-621,188,10,42,-46,79.868
1962,-619,171,13,49,-37,79.878
1972,-625,181,16,39,-19,79.888
1967,-633,184,9,32,-23,79.898
1974,-626,195,17,35,-21,79.908
1963,-620,187,31,28,-19,79.918
1971,-635,179,28,33,-12,79.928
1973,-631,170,38,30,-6,79.938
1971,-621,173,37,22,-5,79.948
1967,-622,179,29,22,-8,79.958
1963,-616,187,25,23,8,79.968
1968,-616,186,35,23,7,79.978
1967,-624,193,31,19,7,79.988
1958,-622,175,37,13,12,79.998
1968,-629,191,48,10,12,80.008
1965,-621,181,45,5,4,80.018
1961,-624,189,54,6,6,80.028
1962,-616,189,55,13,6,80.038
1959,-607,203,62,12,4,80.048
1960,-615,195,67,2,13,80.058
1967,-613,201,71,-1,7,80.068
1973,-611,201,67,5,-2,80.078
1959,-605,201,68,10,-6,80.088
1960,-611,200,72,9,-8,80.098
1965,-602,202,66,-3,-6,80.108
1966,-611,198,79,9,-2,80.118
1971,-617,198,77,7,-19,80.128
1976,-613,185,80,11,-23,80.138
1975,-612,187,81,19,-21,80.148
1980,-618,192,96,17,-30,80.158
1976,-616,194,113,13,-35,80.168
1978,-618,207,135,-1,-40,80.178
1960,-622,204,175,-13,-46,80.188
1948,-625,217,200,-39,-45,80.198
1952,-622,205,222,-50,-44,80.208
1966,-623,199,232,-52,-48,80.218
1976,-615,202,252,-43,-63,80.228
1970,-614,190,246,-27,-69,80.238
1972,-618,207,235,-15,-69,80.248
1985,-615,202,217,-8,-61,80.258
1983,-614,203,196,9,-55,80.268
1984,-619,206,186,33,-43,80.278
1974,-625,198,172,37,-27,80.288
1973,-622,191,164,39,-5,80.298
1982,-617,191,145,53,24,80.308
1976,-606,185,122,55,33,80.318
1980,-605,185,101,59,43,80.328
1976,-598,180,76,54,54,80.338
1978,-614,174,61,77,54,80.348
1969,-610,181,51,69,47,80.358
1979,-609,175,58,80,42,80.368
1968,-598,179,49,81,38,80.378
1966,-599,170,43,88,24,80.388
1964,-604,177,41,86,13,80.398
1954,-600,177,45,90,0,80.408
1950,-607,164,40,76,-7,80.418
1954,-609,162,40,74,-19,80.428
1958,-610,166,49,59,-31,80.438
1961,-615,165,69,51,-36,80.448
1963,-623,174,87,39,-44,80.458
1963,-622,162,104,21,-46,80.468
1975,-618,157,111,10,-62,80.478
1977,-614,154,107,3,-63,80.488
1978,-618,169,99,9,-57,80.498
1975,-614,177,83,5,-49,80.508
1978,-616,184,69,-3,-36,80.518
1974,-623,195,56,6,-38,80.528
1976,-629,180,48,8,-21,80.538
1971,-633,185,45,8,-24,80.548
1962,-633,199,66,3,-19,80.558
1963,-634,210,72,-6,-18,80.568
1963,-633,207,93,0,-11,80.578
1961,-625,223,113,2,-22,80.588
1944,-624,211,123,-5,-30,80.598
1962,-631,209,120,1,-37,80.608
1953,-625,200,117,-1,-42,80.618
1968,-631,207,110,17,-60,80.628
1962,-612,211,113,23,-59,80.638
1956,-624,200,109,38,-56,80.648
1956,-636,204,113,34,-59,80.658
1957,-642,213,108,29,-57,80.668
1940,-641,214,105,52,-51,80.678
1963,-632,224,96,44,-43,80.688
1959,-629,208,80,54,-39,80.698
1972,-625,208,79,65,-36,80.708
1965,-635,206,62,70,-39,80.718
1960,-641,198,57,78,-35,80.728
1958,-636,199,44,93,-26,80.738
1960,-644,193,35,95,-24,80.748
1964,-635,198,38,96,-29,80.758
1954,-638,197,27,93,-22,80.768
1964,-635,198,29,96,-10,80.778
1949,-627,194,39,94,-10,80.788
1939,-628,188,44,98,7,80.798
1933,-622,185,25,100,5,80.808
1938,-616,175,21,88,6,80.818
1952,-625,177,24,80,1,80.828
1963,-622,167,16,79,-19,80.838
1948,-626,162,36,68,-36,80.848
1950,-617,173,59,51,-57,80.858
1957,-624,162,94,31,-77,80.868
1955,-619,166,126,11,-97,80.878
1968,-633,173,162,-20,-123,80.888
1997,-648,187,205,-23,-140,80.898
2024,-659,213,241,-27,-169,80.908
2007,-652,223,265,-8,-192,80.918
1960,-656,209,267,17,-186,80.928
1916,-585,236,268,48,-163,80.938
1870,-555,234,100,91,-107,80.948
1887,-569,222,-100,127,-37,80.958
1949,-554,194,-333,195,42,80.968
1965,-546,176,-524,240,122,80.978
1972,-556,167,-695,264,219,80.988
2003,-591,178,-799,256,302,80.998
2028,-634,175,-826,228,342,81.008
2025,-679,175,-732,188,361,81.018
1994,-703,181,-530,122,333,81.028
1982,-697,183,-271,35,283,81.038
1964,-689,174,-13,-17,200,81.048
1940,-677,177,224,-74,103,81.058
1927,-669,195,420,-107,-32,81.068
1908,-645,197,562,-122,-139,81.078
1910,-612,235,641,-114,-241,81.088
1925,-584,217,640,-107,-308,81.098
1956,-559,225,577,-75,-352,81.108
1959,-573,227,470,-17,-370,81.118
1958,-596,252,327,20,-362,81.128
1941,-599,247,221,59,-342,81.138
1929,-619,242,124,92,-294,81.148
1926,-606,242,29,127,-216,81.158
1934,-608,238,-68,162,-138,81.168
1946,-626,219,-160,183,-45,81.178
1976,-638,183,-244,210,42,81.188
1993,-634,169,-309,230,119,81.198
1993,-621,160,-350,228,186,81.208
1991,-609,159,-400,208,254,81.218
2004,-641,154,-433,179,291,81.228
2021,-662,158,-405,130,300,81.238
2021,-676,156,-317,88,257,81.248
1988,-676,152,-197,26,220,81.258
1981,-661,162,-69,-23,157,81.268
1967,-655,181,64,-60,93,81.278
1947,-647,175,173,-87,9,81.288
1918,-633,172,247,-99,-73,81.298
1900,-615,180,286,-104,-149,81.308
1904,-605,199,284,-105,-205,81.318
1906,-591,208,255,-104,-252,81.328
1915,-603,217,223,-102,-275,81.338
1923,-602,234,186,-96,-281,81.348
1941,-609,233,125,-95,-276,81.358
1959,-616,228,81,-78,-267,81.368
1962,-619,217,37,-54,-270,81.378
1960,-629,225,-6,-41,-239,81.388
1983,-629,209,-34,-17,-216,81.398
1991,-643,211,-55,6,-190,81.408
1992,-650,209,-67,11,-157,81.418
1984,-656,221,-57,6,-136,81.428
1978,-656,214,-31,3,-108,81.438
1980,-661,219,-2,-14,-98,81.448
1969,-661,238,33,-35,-88,81.458
1965,-654,216,64,-49,-84,81.468
1957,-660,224,105,-53,-96,81.478
1949,-649,229,145,-60,-100,81.488
1939,-643,214,188,-55,-126,81.498
1948,-639,217,207,-48,-140,81.508
1945,-641,233,202,-38,-144,81.518
1937,-635,227,182,-24,-156,81.528
1940,-633,238,165,-4,-159,81.538
1951,-648,219,139,0,-157,81.548
1965,-644,239,121,16,-141,81.558
1955,-632,230,106,30,-122,81.568
1957,-631,212,57,46,-95,81.578
1958,-647,198,26,66,-70,81.588
1957,-655,199,7,84,-37,81.598
1956,-656,189,-4,99,-4,81.608
1960,-647,201,1,102,22,81.618
1965,-646,194,-14,108,46,81.628
1959,-653,195,-3,103,60,81.638
1965,-640,196,2,90,77,81.648
1987,-643,195,18,90,76,81.658
1981,-649,185,25,95,65,81.668
1981,-636,170,37,92,58,81.678
1979,-640,175,46,84,48,81.688
1968,-634,182,42,81,46,81.698
1949,-626,189,28,79,41,81.708
1946,-625,191,31,72,40,81.718
1940,-631,176,7,65,33,81.728
1946,-624,182,-4,58,46,81.738
1932,-624,180,-1,64,52,81.748
1942,-622,184,1,47,61,81.758
1948,-637,200,13,42,61,81.768
1957,-637,189,39,37,56,81.778
1970,-638,182,67,26,53,81.788
1965,-625,172,89,18,45,81.798
1961,-622,168,101,7,41,81.808
1958,-618,191,89,17,33,81.818
1959,-631,197,90,9,23,81.828
1958,-622,203,98,5,6,81.838
1963,-621,193,84,9,4,81.848
1956,-624,197,94,9,-1,81.858
1959,-616,185,90,8,2,81.868
1960,-607,182,75,17,7,81.878
1960,-610,189,62,32,6,81.888
1949,-611,190,42,21,10,81.898
1959,-619,191,34,11,-3,81.908
1968,-627,196,47,18,-12,81.918
1971,-614,204,45,13,-21,81.928
1956,-614,180,44,11,-33,81.938
1964,-624,186,41,0,-47,81.948
1964,-618,177,52,2,-74,81.958
1966,-617,189,58,-5,-93,81.968
1949,-622,179,57,-5,-101,81.978
1960,-623,195,66,-24,-113,81.988
1959,-628,191,54,-18,-117,81.998
1958,-627,201,63,-2,-126,82.008
1948,-627,196,74,-16,-124,82.018
1945,-623,197,75,-15,-120,82.028
1963,-631,196,89,-15,-116,82.038
1966,-638,198,95,-22,-110,82.048
1960,-639,186,109,-23,-106,82.058
1963,-647,189,107,-28,-114,82.068
1965,-636,197,132,-40,-108,82.078
1950,-638,217,141,-36,-101,82.088
1946,-633,218,136,-26,-87,82.098
1954,-629,197,132,-25,-84,82.108
1953,-626,207,115,-23,-78,82.118
1972,-624,188,100,-6,-58,82.128
1970,-623,203,75,8,-54,82.138
1979,-625,190,70,18,-63,82.148
1966,-625,195,67,28,-54,82.158
1965,-626,194,59,19,-44,82.168
1971,-633,185,56,22,-37,82.178
1970,-626,180,61,23,-41,82.188
1973,-616,192,72,24,-43,82.198
1969,-615,193,65,26,-46,82.208
1980,-609,172,46,18,-30,82.218
1970,-616,196,36,11,-35,82.228
1967,-611,180,23,15,-39,82.238
1969,-604,179,11,6,-38,82.248
1966,-609,189,17,18,-43,82.258
1959,-614,188,23,11,-50,82.268
1956,-623,181,37,13,-57,82.278
1950,-608,179,51,17,-62,82.288
1961,-618,180,55,2,-64,82.298
1962,-612,182,58,1,-75,82.308
1962,-603,181,52,4,-86,82.318
1973,-603,168,53,5,-93,82.328
1972,-610,178,44,-4,-91,82.338
1971,-616,188,43,-4,-98,82.348
1966,-611,180,41,8,-102,82.358
1969,-622,180,40,-3,-101,82.368
1960,-623,195,42,5,-102,82.378
1960,-617,188,48,2,-91,82.388
1964,-622,185,44,4,-88,82.398
1960,-604,188,36,6,-87,82.408
1960,-606,182,25,11,-68,82.418
1956,-613,191,3,15,-69,82.428
1963,-628,183,-6,26,-76,82.438
1963,-619,182,-3,25,-65,82.448
1973,-610,180,-12,28,-68,82.458
1961,-623,181,3,25,-68,82.468
1962,-629,178,-13,21,-66,82.478
1959,-627,194,-6,24,-63,82.488
1960,-629,177,4,14,-67,82.498
1962,-627,173,4,17,-72,82.508
1969,-629,174,18,12,-77,82.518
1965,-637,185,7,17,-67,82.528
1972,-628,203,8,17,-71,82.538
1969,-624,187,10,10,-69,82.548
1969,-636,188,21,23,-68,82.558
1974,-636,199,26,24,-66,82.568
1963,-630,186,38,11,-54,82.578
1965,-631,198,45,7,-57,82.588
1957,-619,201,46,10,-40,82.598
1956,-625,193,60,11,-37,82.608
1957,-631,188,60,5,-38,82.618
1966,-620,197,62,-3,-25,82.628
1962,-619,200,60,12,-21,82.638
1968,-620,201,57,15,-28,82.648
1961,-623,193,58,11,-34,82.658
1958,-629,195,51,22,-34,82.668
1972,-624,188,57,30,-29,82.678
1974,-626,192,59,37,-29,82.688
1970,-619,202,57,34,-28,82.698
1969,-616,198,57,37,-34,82.708
1969,-618,194,63,35,-24,82.718
1974,-623,205,64,36,-17,82.728
1968,-617,196,74,34,-22,82.738
1963,-615,183,79,34,-17,82.748
1968,-615,198,83,25,-16,82.758
1966,-623,183,87,38,-13,82.768
1964,-616,192,84,30,-14,82.778
1969,-620,187,92,38,-16,82.788
1975,-615,177,85,36,-15,82.798
1969,-610,193,92,40,-14,82.808
1975,-611,178,88,44,-6,82.818
1969,-605,188,92,38,-17,82.828
1967,-605,182,82,41,-11,82.838
1965,-605,184,84,39,-15,82.848
1960,-611,184,77,43,-10,82.858
1971,-608,187,92,46,-25,82.868
1971,-602,185,93,38,-22,82.878
1962,-600,175,104,38,-20,82.888
1967,-608,181,95,43,-17,82.898
1970,-616,178,92,42,-17,82.908
1962,-614,185,85,37,-13,82.918
1968,-608,171,78,50,-16,82.928
1969,-604,190,80,36,-24,82.938
1967,-609,178,83,32,-28,82.948
1965,-608,176,82,33,-17,82.958
1965,-606,164,83,35,-33,82.968
1963,-607,159,82,25,-25,82.978
1957,-604,178,81,28,-29,82.988
1969,-601,163,80,32,-29,82.998
1970,-597,164,75,33,-37,83.008
1964,-604,187,74,23,-40,83.018
1967,-613,165,82,20,-45,83.028
1965,-601,166,87,26,-50,83.038
1968,-613,174,84,19,-60,83.048
1967,-607,186,96,15,-68,83.058
1967,-605,172,102,12,-61,83.068
1958,-608,176,100,13,-63,83.078
1954,-603,194,103,16,-58,83.088
1959,-606,188,79,17,-54,83.098
1966,-605,182,74,27,-46,83.108
1967,-599,179,62,31,-45,83.118
1970,-603,183,51,31,-48,83.129
1957,-610,180,52,29,-50,83.139
1965,-614,183,42,36,-40,83.149
1973,-614,188,49,39,-43,83.159
1976,-617,183,57,39,-48,83.169
1965,-616,178,62,33,-53,83.179
1969,-613,175,66,29,-53,83.189
1974,-622,169,63,34,-48,83.199
1976,-615,175,58,27,-48,83.209
1971,-611,177,55,27,-49,83.219
1967,-617,196,57,25,-51,83.229
1974,-615,180,48,31,-55,83.239
1968,-610,190,48,34,-54,83.249
1976,-620,189,45,29,-56,83.259
1964,-622,182,48,30,-60,83.269
1956,-627,173,34,34,-52,83.279
1963,-623,202,40,37,-45,83.289
1957,-627,205,45,42,-50,83.299
1961,-629,185,48,38,-46,83.309
1965,-628,181,48,35,-49,83.319
1962,-637,186,58,30,-40,83.329
1965,-629,176,52,38,-39,83.339
1960,-628,190,54,38,-33,83.349
1966,-627,189,48,47,-28,83.359
1963,-632,183,45,37,-31,83.369
1956,-628,185,46,45,-28,83.379
1960,-618,186,48,38,-32,83.389
1961,-620,197,45,41,-17,83.399
1962,-631,194,54,37,-16,83.409
1959,-626,187,56,40,-13,83.419
1951,-620,192,57,39,-20,83.429
1949,-619,197,61,40,-10,83.439
1949,-623,176,57,38,-9,83.449
1955,-621,193,60,35,-17,83.459
1952,-629,181,65,32,-16,83.469
1959,-624,185,64,35,-6,83.479
1962,-625,187,71,35,-8,83.489
1963,-624,180,76,26,-2,83.499
1974,-626,181,61,24,-4,83.509
1972,-618,190,65,29,-8,83.519
1963,-614,186,65,32,7,83.529
1966,-627,185,67,32,6,83.539
1956,-621,185,53,25,13,83.549
1966,-616,183,51,29,19,83.559
1965,-617,175,47,29,11,83.569
1959,-620,192,46,36,7,83.579
1968,-614,183,53,38,12,83.589
1972,-612,188,48,32,-3,83.599
1967,-615,187,62,26,-9,83.609
1963,-618,187,66,19,-9,83.619
1964,-629,180,66,16,-12,83.629
1961,-620,195,78,14,-19,83.639
1962,-620,184,83,0,-30,83.649
1949,-613,185,88,11,-28,83.659
1950,-612,194,93,-1,-32,83.669
1958,-610,186,87,1,-40,83.679
1960,-611,188,84,8,-34,83.689
1955,-616,193,70,15,-38,83.699
1960,-613,184,64,14,-40,83.709
1968,-610,191,63,18,-42,83.719
1979,-619,192,56,20,-52,83.729
1974,-626,181,61,18,-62,83.739
1975,-623,194,64,26,-64,83.749
1973,-633,190,76,21,-65,83.759
1972,-625,193,89,14,-68,83.769
1965,-601,186,97,11,-60,83.779
1977,-620,188,90,4,-62,83.789
1970,-624,186,79,10,-60,83.799
1957,-615,199,67,20,-52,83.809
1958,-614,182,68,22,-56,83.819
1962,-619,177,59,32,-41,83.829
1956,-618,201,49,37,-53,83.839
1961,-627,185,56,27,-52,83.849
1973,-623,206,58,31,-67,83.859
1966,-622,191,59,35,-68,83.869
1980,-626,191,64,36,-68,83.879
1972,-634,172,74,40,-75,83.889
1965,-621,189,72,35,-70,83.899
1954,-613,193,73,27,-60,83.909
1956,-616,186,65,25,-56,83.919
1960,-619,187,54,28,-54,83.929
1963,-626,186,42,28,-46,83.939
1957,-631,190,45,22,-51,83.949
1962,-635,180,42,26,-48,83.959
1970,-633,177,46,32,-46,83.969
1961,-631,181,50,36,-52,83.979
1959,-626,193,61,38,-49,83.989
1962,-632,185,57,37,-43,83.999
1960,-630,184,71,42,-53,84.009
1954,-628,196,70,36,-40,84.019
1954,-625,187,70,34,-31,84.029
1953,-634,197,65,26,-25,84.039
1963,-629,174,56,24,-21,84.049
1959,-625,188,43,35,-15,84.059
1961,-627,181,49,41,-16,84.069
1966,-635,180,49,43,-14,84.079
1962,-625,194,46,46,-25,84.089
1958,-634,199,44,39,-20,84.099
1961,-630,186,45,35,-29,84.109
1954,-634,192,58,38,-20,84.119
1952,-625,192,58,26,-17,84.129
1952,-629,188,64,30,-13,84.139
1962,-624,174,65,15,-11,84.149
1964,-634,175,66,23,-5,84.159
1952,-626,171,60,21,-10,84.169
1963,-626,182,51,19,-5,84.179
1968,-627,191,63,26,-3,84.189
1951,-623,196,54,20,-7,84.199
1941,-619,176,61,12,-2,84.209
1959,-623,177,48,14,-3,84.219
1956,-624,177,54,8,-9,84.229
1961,-627,177,59,8,-15,84.239
1972,-630,185,71,6,-24,84.249
1961,-619,178,71,4,-25,84.259
1959,-624,184,80,-6,-23,84.269
1962,-626,187,82,-8,-22,84.279
1967,-618,192,80,5,-17,84.289
1953,-620,188,78,11,-16,84.299
1962,-622,193,87,18,-23,84.309
1965,-626,190,81,4,-21,84.319
1958,-620,179,69,16,-13,84.329
1970,-627,188,70,11,-20,84.339
1969,-629,194,83,11,-16,84.349
1967,-634,194,83,16,-15,84.359
1963,-617,195,87,7,-18,84.369
1951,-626,191,87,11,-18,84.379
1965,-617,193,79,5,-17,84.389
1970,-613,194,75,12,-19,84.399
1972,-620,197,56,11,-19,84.409
1972,-627,195,65,10,-27,84.419
1973,-631,187,56,26,-33,84.429
1974,-629,195,56,19,-34,84.439
1971,-623,184,61,32,-32,84.449
1964,-633,195,66,29,-26,84.459
1962,-630,187,71,26,-28,84.469
1967,-630,195,71,32,-23,84.479
1952,-619,192,71,50,-15,84.489
1956,-625,195,56,39,-13,84.499
1960,-621,198,61,37,-9,84.509
1959,-631,194,59,36,-12,84.519
1967,-612,184,54,38,-21,84.529
1960,-623,189,56,45,-20,84.539
1966,-619,192,53,40,-22,84.549
1961,-627,191,69,43,-37,84.559
1967,-627,175,65,45,-40,84.569
1966,-633,180,66,42,-45,84.579
1972,-634,181,78,44,-49,84.589
1953,-625,178,66,37,-44,84.599
1959,-624,180,69,50,-45,84.609
1959,-618,157,61,41,-41,84.619
1955,-627,176,55,47,-36,84.629
1965,-632,183,46,39,-33,84.639
1963,-629,184,39,39,-32,84.649
1961,-629,168,45,36,-27,84.659
1966,-629,183,47,42,-35,84.669
1965,-625,181,36,35,-41,84.679
1966,-620,172,35,32,-39,84.689
1952,-626,181,43,42,-40,84.699
1955,-624,188,38,43,-40,84.709
1950,-620,188,28,38,-37,84.719
1948,-620,196,33,32,-39,84.729
1952,-622,194,35,40,-42,84.739
1955,-621,185,31,29,-48,84.749
1951,-626,179,39,26,-47,84.759
1953,-623,180,52,20,-58,84.769
1965,-627,184,54,27,-73,84.779
1959,-626,181,57,23,-83,84.789
1960,-618,177,67,17,-77,84.799
1961,-626,177,54,22,-79,84.809
1959,-626,181,35,25,-81,84.819
1955,-627,186,32,30,-74,84.829
1960,-630,180,27,25,-83,84.839
1971,-627,178,19,19,-80,84.849
1966,-631,187,16,27,-75,84.859
1972,-635,184,17,21,-78,84.869
1965,-631,176,25,19,-79,84.879
1964,-632,173,24,19,-73,84.889
1954,-629,189,25,16,-75,84.899
1961,-624,190,17,10,-73,84.909
1953,-632,190,19,18,-64,84.919
1953,-633,188,16,26,-64,84.929
1963,-636,189,24,26,-66,84.939
1962,-632,187,28,20,-66,84.949
1959,-640,187,30,19,-70,84.959
1957,-639,189,31,22,-64,84.969
1956,-637,200,44,22,-59,84.979
1956,-636,182,43,11,-60,84.989
1961,-632,190,39,8,-60,84.999
1956,-630,194,39,16,-48,85.009
1953,-643,189,47,18,-55,85.019
1958,-641,182,46,26,-44,85.029
1967,-629,195,39,14,-46,85.039
1956,-626,178,33,18,-39,85.049
1959,-643,174,30,20,-37,85.059
1961,-634,186,30,25,-27,85.069
1955,-636,181,29,21,-24,85.079
1963,-646,187,32,15,-27,85.089
1962,-649,182,36,23,-35,85.099
1959,-632,180,48,-1,-24,85.109
1967,-640,199,53,14,-33,85.119
1969,-627,189,63,13,-36,85.129
1971,-630,195,68,17,-30,85.139
1966,-635,182,69,16,-35,85.149
1961,-638,190,73,17,-29,85.159
1953,-634,189,73,21,-26,85.169
1951,-639,217,81,17,-26,85.179
1955,-638,202,73,19,-25,85.189
1958,-645,205,69,26,-22,85.199
1956,-637,194,71,22,-11,85.209
1967,-641,207,68,22,-11,85.219
1965,-642,196,70,28,-7,85.229
1970,-641,194,64,33,2,85.239
1971,-640,202,76,40,-3,85.249
1980,-647,197,68,40,3,85.259
1972,-650,187,75,44,8,85.269
1969,-631,204,78,46,17,85.279
1965,-636,195,67,45,17,85.289
1962,-636,185,60,50,26,85.299
1963,-628,192,62,52,29,85.309
1960,-632,194,70,49,27,85.319
1958,-638,201,60,62,27,85.329
1954,-636,198,75,63,36,85.339
1953,-630,191,62,70,36,85.349
1956,-623,190,64,65,24,85.359
1972,-627,183,56,71,22,85.369
1957,-625,173,52,71,21,85.379
1948,-624,192,53,74,21,85.389
1938,-623,179,64,72,24,85.399
1945,-630,168,73,65,12,85.409
1943,-630,175,80,66,18,85.419
1948,-629,182,92,51,13,85.429
1961,-625,182,99,38,10,85.439
1953,-619,171,96,46,4,85.449
1949,-621,165,101,40,-3,85.459
1945,-613,168,98,36,-9,85.469
1955,-628,170,91,38,-9,85.479
1963,-618,147,89,38,-19,85.489
1968,-625,166,83,32,-20,85.499
1961,-622,152,82,18,-20,85.509
1962,-615,175,84,18,-27,85.519
1963,-616,167,79,3,-28,85.529
1954,-616,159,80,4,-25,85.539
1966,-622,167,73,-2,-21,85.549
1959,-624,171,70,-7,-30,85.559
1962,-613,169,63,-7,-43,85.569
1956,-619,160,46,4,-40,85.579
1967,-628,168,49,-1,-51,85.589
1966,-621,156,38,-2,-55,85.599
1965,-623,177,43,-8,-62,85.609
1968,-627,160,47,3,-66,85.619
1961,-629,184,48,-19,-71,85.629
1962,-626,184,58,-26,-78,85.639
1957,-636,179,73,-30,-89,85.649
1969,-632,185,92,-32,-96,85.659
1959,-626,187,85,-30,-99,85.669
1968,-630,181,98,-27,-100,85.679
1963,-627,187,82,-21,-107,85.689
1963,-620,180,77,-21,-106,85.699
1967,-629,186,63,-13,-115,85.709
1957,-622,184,60,-20,-107,85.719
1956,-629,194,37,-8,-102,85.729
1956,-636,199,31,4,-100,85.739
1966,-628,197,34,7,-99,85.749
1971,-629,191,32,5,-87,85.759
1975,-632,186,20,9,-90,85.769
1977,-635,193,20,10,-85,85.779
1973,-642,203,15,27,-87,85.789
1968,-638,194,27,22,-92,85.799
1975,-644,180,32,20,-97,85.809
1971,-642,190,34,30,-98,85.819
1958,-639,188,37,24,-86,85.829
1956,-637,193,35,27,-89,85.839
1952,-641,181,34,27,-85,85.849
1957,-634,195,25,42,-85,85.859
1954,-635,196,23,44,-81,85.869
1949,-630,187,24,42,-83,85.879
1955,-634,192,29,43,-87,85.889
1955,-638,180,30,39,-77,85.899
1965,-644,192,35,39,-86,85.909
1962,-640,190,32,52,-77,85.919
1958,-645,182,36,47,-76,85.929
1954,-637,183,33,39,-68,85.939
1963,-648,179,31,51,-67,85.949
1967,-647,176,27,38,-57,85.959
1959,-645,181,15,55,-49,85.969
1958,-643,173,7,37,-37,85.979
1952,-646,161,8,42,-31,85.989
1952,-643,169,12,37,-36,85.999
1955,-635,178,31,35,-28,86.009
1951,-640,177,31,29,-34,86.019
1953,-645,166,47,26,-35,86.029
1955,-635,176,49,18,-40,86.039
1963,-637,171,50,27,-44,86.049
1964,-626,193,47,13,-52,86.059
1951,-640,164,54,17,-54,86.069
1956,-640,170,63,5,-51,86.079
1952,-627,182,67,2,-45,86.089
1957,-636,176,79,5,-51,86.099
1956,-639,169,72,-6,-45,86.109
1952,-639,174,78,-4,-38,86.119
1957,-635,172,79,11,-40,86.129
1957,-628,186,84,2,-28,86.139
1960,-628,188,74,0,-20,86.149
1963,-636,190,80,-6,-24,86.159
1966,-638,188,85,-6,-25,86.169
1963,-636,185,97,-12,-21,86.179
1967,-636,187,103,-8,-28,86.189
1960,-634,176,104,1,-21,86.199
1959,-628,192,110,3,-20,86.209
1964,-631,190,103,4,-25,86.219
1968,-625,181,96,12,-16,86.229
1972,-630,176,85,23,-13,86.239
1966,-630,190,78,20,-5,86.249
1964,-631,184,74,19,8,86.259
1971,-627,186,75,22,10,86.269
1976,-635,190,73,21,18,86.279
1963,-630,180,67,31,23,86.289
1965,-633,190,69,39,26,86.299
1972,-616,176,65,40,28,86.309
1974,-618,199,63,47,28,86.319
1971,-621,185,47,45,29,86.329
1966,-614,192,50,46,28,86.339
1963,-611,182,43,52,24,86.349
1971,-614,179,47,51,22,86.359
1963,-617,167,61,50,14,86.369
1957,-617,180,64,43,2,86.379
1965,-615,178,76,42,-8,86.389
1967,-614,182,84,35,-17,86.399
1959,-611,182,84,41,-26,86.409
1958,-611,186,85,40,-30,86.419
1951,-612,179,81,33,-38,86.429
1967,-604,191,78,33,-39,86.439
1973,-603,174,65,42,-36,86.449
1979,-608,160,57,42,-47,86.459
1969,-616,168,49,38,-51,86.469
1969,-627,177,54,46,-58,86.479
1976,-624,157,67,25,-57,86.489
1968,-626,198,74,27,-57,86.499
1958,-630,174,80,24,-64,86.509
1960,-620,169,74,27,-64,86.519
1954,-610,178,76,34,-65,86.529
1952,-614,181,72,34,-69,86.539
1954,-621,178,64,36,-68,86.549
1950,-631,178,63,27,-79,86.559
1959,-617,184,55,31,-78,86.569
1962,-622,189,46,36,-74,86.579
1956,-629,162,43,36,-84,86.589
1966,-638,184,54,26,-94,86.599
1965,-637,165,60,27,-91,86.609
1972,-644,177,63,20,-78,86.619
1967,-642,172,75,27,-81,86.629
1961,-640,177,80,18,-70,86.639
1956,-635,177,80,16,-67,86.649
1955,-648,197,78,12,-62,86.659
1957,-648,186,84,9,-51,86.669
1962,-642,186,86,9,-53,86.679
1966,-656,178,87,5,-52,86.689
1963,-649,173,108,12,-54,86.699
1960,-653,184,108,9,-54,86.709
1963,-642,184,98,11,-42,86.719
1959,-631,192,98,23,-47,86.729
1952,-636,191,86,21,-36,86.739
1957,-634,202,69,16,-35,86.749
1942,-641,202,59,24,-26,86.759
1961,-644,194,46,32,-19,86.769
1951,-642,208,43,43,-16,86.779
1963,-648,190,42,40,-13,86.789
1971,-647,197,51,41,-12,86.799
1964,-649,184,57,50,-3,86.809
1964,-639,201,49,60,11,86.819
1960,-639,174,51,53,8,86.829
1966,-635,171,52,56,9,86.839
1964,-629,200,52,50,14,86.849
1965,-646,182,69,44,7,86.859
1962,-634,186,74,44,18,86.869
1960,-636,190,80,44,1,86.879
1963,-629,183,76,48,10,86.889
1962,-623,187,77,40,3,86.899
1960,-637,181,76,47,-12,86.909
1954,-626,176,83,44,-6,86.919
1956,-628,166,75,44,-11,86.929
1962,-627,183,68,37,-8,86.939
1965,-634,175,70,43,-19,86.949
1957,-631,181,77,35,-20,86.959
1956,-626,178,91,25,-33,86.969
1960,-633,183,101,33,-36,86.979
1955,-630,189,102,15,-36,86.989
1962,-625,174,107,29,-34,86.999
1966,-635,172,89,24,-29,87.009
1959,-617,179,92,37,-40,87.019
1958,-629,176,69,28,-28,87.029
1964,-632,183,67,29,-28,87.039
1970,-624,174,61,33,-20,87.049
1964,-637,172,64,26,-35,87.059
1971,-638,179,71,24,-23,87.069
1962,-635,190,78,15,-36,87.079
1955,-638,181,90,10,-27,87.089
1962,-634,195,96,14,-35,87.099
1965,-632,184,84,10,-37,87.109
1963,-627,197,90,11,-48,87.119
1968,-622,175,69,24,-46,87.129
1975,-631,193,58,28,-39,87.139
1974,-634,186,38,29,-48,87.149
1969,-644,195,36,27,-45,87.159
1974,-633,182,41,29,-45,87.169
1968,-646,198,42,30,-40,87.179
1974,-641,183,58,22,-36,87.189
1963,-635,196,74,39,-37,87.199
1960,-637,187,83,35,-40,87.209
1955,-630,205,85,29,-39,87.219
1948,-625,202,93,29,-41,87.229
1945,-635,181,87,38,-48,87.239
1936,-623,199,83,29,-48,87.249
1951,-634,199,85,33,-54,87.259
1956,-627,191,81,29,-61,87.269
1956,-634,194,70,35,-59,87.279
1958,-628,196,77,40,-55,87.289
1959,-639,187,71,41,-57,87.299
1971,-643,191,75,41,-62,87.309
1971,-640,180,68,43,-55,87.319
1963,-644,171,76,30,-55,87.329
1951,-636,179,74,35,-41,87.339
1960,-636,178,59,38,-30,87.349
1958,-635,183,53,31,-27,87.359
1956,-633,170,53,32,-27,87.369
1963,-640,182,54,36,-35,87.379
1968,-639,182,56,35,-36,87.389
1965,-642,170,56,35,-42,87.399
1966,-635,175,71,37,-43,87.409
1961,-639,190,69,39,-48,87.419
1950,-636,181,74,28,-46,87.429
1953,-635,184,81,32,-50,87.439
1945,-632,189,74,25,-48,87.449
1953,-627,197,68,35,-42,87.459
1959,-633,185,62,44,-34,87.469
1954,-626,189,45,40,-27,87.479
1955,-625,196,37,37,-26,87.489
1953,-636,193,36,55,-30,87.499
1952,-641,192,32,39,-34,87.509
1951,-637,183,38,46,-28,87.519
1955,-631,183,49,40,-37,87.529
1957,-649,188,51,39,-34,87.539
1952,-632,194,55,43,-40,87.549
1955,-636,186,63,40,-39,87.559
1961,-636,178,54,33,-42,87.569
1964,-637,204,57,30,-50,87.579
1951,-628,198,49,29,-37,87.589
1951,-631,198,52,21,-37,87.599
1966,-632,178,39,20,-45,87.609
1964,-640,192,34,27,-35,87.619
1960,-638,190,42,22,-30,87.629
1969,-640,212,40,27,-34,87.639
1956,-639,188,39,32,-35,87.649
1962,-634,207,39,23,-44,87.659
1967,-634,209,30,34,-46,87.669
1967,-637,189,30,36,-44,87.679
1963,-630,204,35,34,-46,87.689
1964,-636,202,40,36,-60,87.699
1967,-637,201,31,37,-49,87.709
1956,-641,196,30,38,-45,87.719
1967,-643,194,36,35,-50,87.729
1973,-644,198,25,49,-47,87.739
1971,-639,197,33,41,-49,87.749
1967,-637,204,28,45,-39,87.759
1958,-629,215,26,41,-34,87.769
1957,-633,203,27,45,-29,87.779
1959,-635,189,24,49,-28,87.789
1949,-641,203,34,46,-39,87.799
1952,-627,205,36,46,-50,87.809
1955,-624,203,58,41,-54,87.819
1959,-620,189,55,43,-60,87.829
1962,-616,200,48,51,-75,87.839
1947,-626,190,56,37,-86,87.849
1949,-633,198,65,26,-102,87.859
1959,-635,191,90,11,-125,87.869
1946,-638,190,105,10,-127,87.879
1953,-638,206,118,0,-133,87.889
1946,-638,198,135,-3,-137,87.899
1944,-646,203,139,7,-126,87.909
1946,-650,188,133,9,-110,87.919
1947,-640,196,125,22,-102,87.929
1951,-640,202,106,22,-85,87.939
1962,-632,203,83,34,-75,87.949
1948,-642,207,59,34,-48,87.959
1960,-647,195,38,33,-30,87.969
1967,-660,202,52,39,-37,87.979
1968,-655,200,70,41,-34,87.989
1966,-649,179,90,34,-13,87.999
1971,-652,201,100,46,-16,88.009
1958,-642,187,100,39,-3,88.019
1958,-640,189,104,45,-9,88.029
1959,-621,180,83,44,8,88.039
1955,-628,177,71,46,7,88.049
1957,-629,187,62,36,8,88.059
1958,-638,203,48,38,4,88.069
1961,-639,184,71,36,-11,88.079
1966,-641,176,93,19,-26,88.089
1954,-628,170,123,14,-33,88.099
1957,-625,193,133,0,-32,88.109
1951,-623,187,133,-15,-46,88.119
1944,-631,189,128,0,-58,88.129
1960,-616,197,117,11,-64,88.139
1949,-616,197,96,9,-59,88.149
1967,-624,202,79,20,-49,88.159
1961,-622,198,64,24,-43,88.169
1963,-627,198,67,25,-38,88.179
1966,-635,194,58,15,-25,88.189
1971,-634,188,66,19,-29,88.199
1970,-633,196,70,27,-20,88.209
1964,-630,192,75,8,-21,88.219
1980,-625,195,80,17,-18,88.229
1962,-621,194,80,16,-11,88.239
1974,-629,185,74,14,-14,88.249
1970,-621,202,65,18,-14,88.259
1969,-609,199,55,26,-20,88.269
1973,-626,224,42,21,-22,88.279
1966,-625,207,55,28,-21,88.289
1962,-619,198,63,20,-26,88.299
1947,-615,213,72,28,-37,88.309
1961,-612,205,83,11,-41,88.319
1954,-613,204,83,21,-53,88.329
1956,-609,199,79,28,-60,88.339
1965,-613,195,76,31,-53,88.349
1961,-610,196,64,29,-63,88.359
1965,-604,193,52,34,-69,88.369
1962,-609,189,38,32,-69,88.379
1967,-618,190,35,26,-68,88.389
1970,-614,202,38,28,-67,88.399
1963,-630,187,48,27,-70,88.409
1968,-622,163,53,17,-67,88.419
1969,-631,190,49,27,-76,88.429
1962,-630,180,67,18,-68,88.439
1967,-620,185,72,18,-82,88.449
1959,-622,188,67,17,-78,88.459
1966,-625,186,72,8,-73,88.469
1953,-625,182,73,9,-76,88.479
1951,-627,201,52,14,-76,88.489
1954,-621,185,48,8,-74,88.499
1955,-607,188,34,15,-67,88.509
1967,-623,194,27,12,-66,88.519
1968,-625,183,30,21,-68,88.529
1956,-627,183,32,13,-72,88.539
1964,-634,188,47,15,-72,88.549
1968,-627,194,47,10,-78,88.559
1967,-632,197,57,19,-76,88.569
1964,-628,183,69,6,-83,88.579
1966,-624,199,67,9,-76,88.589
1957,-625,207,66,12,-71,88.599
1961,-628,196,63,2,-63,88.609
1959,-626,195,45,4,-63,88.619
1966,-622,196,50,16,-60,88.629
1968,-627,201,48,12,-53,88.639
1967,-623,183,47,21,-50,88.649
1971,-625,205,47,18,-57,88.659
1969,-628,188,35,15,-48,88.669
1961,-625,196,47,24,-46,88.679
1963,-631,191,42,17,-41,88.689
1976,-623,199,46,22,-50,88.699
1964,-636,190,58,26,-49,88.709
1969,-628,201,56,20,-49,88.719
1964,-619,207,55,25,-41,88.729
1963,-626,214,61,16,-41,88.739
1956,-619,204,69,11,-38,88.749
1952,-621,207,76,9,-50,88.759
1958,-625,209,85,15,-52,88.769
1971,-623,193,85,7,-50,88.779
1960,-625,206,94,4,-54,88.789
1951,-625,201,97,7,-59,88.799
1959,-623,202,101,12,-60,88.809
1955,-619,206,100,4,-68,88.819
1958,-618,189,113,2,-65,88.829
1958,-617,181,117,2,-62,88.839
1951,-618,184,111,0,-74,88.849
1956,-625,184,119,7,-71,88.859
1955,-621,184,119,2,-73,88.869
1958,-619,180,107,14,-74,88.879
1959,-616,191,105,10,-69,88.889
1958,-617,170,104,2,-67,88.899
1967,-630,168,94,11,-67,88.909
1970,-628,172,88,7,-68,88.919
1969,-621,166,106,-4,-75,88.929
1965,-628,174,110,-6,-61,88.939
1975,-624,164,123,-12,-70,88.949
1969,-615,157,127,-17,-75,88.959
1963,-617,169,132,-33,-74,88.969
1956,-620,177,139,-28,-77,88.979
1963,-605,172,139,-43,-78,88.989
1962,-623,157,137,-40,-75,88.999
1964,-611,165,136,-53,-78,89.009
1971,-609,157,131,-54,-86,89.019
1977,-606,159,121,-53,-103,89.029
1979,-614,162,118,-70,-100,89.039
1990,-612,170,131,-73,-119,89.049
1987,-611,165,162,-85,-144,89.059
1980,-604,175,176,-93,-148,89.069
1981,-612,183,180,-107,-166,89.079
1983,-608,179,180,-100,-178,89.089
1966,-603,180,173,-93,-193,89.099
1973,-594,191,154,-86,-190,89.109
1970,-601,171,139,-66,-181,89.119
1969,-597,194,102,-45,-173,89.129
1958,-596,196,64,-31,-152,89.139
1976,-589,194,17,-6,-133,89.149
1989,-595,185,-27,11,-105,89.159
1986,-603,177,-77,28,-74,89.169
1970,-598,185,-107,50,-51,89.179
1974,-586,183,-125,61,-29,89.189
1977,-592,181,-137,69,-19,89.199
1969,-597,169,-141,73,2,89.209
1968,-596,167,-117,73,-5,89.219
1950,-591,160,-102,61,-22,89.229
1946,-604,160,-64,35,-31,89.239
1952,-600,155,-10,8,-48,89.249
1959,-598,166,31,-7,-61,89.259
1958,-591,157,63,-30,-88,89.269
1966,-591,168,77,-44,-102,89.279
1979,-594,176,88,-46,-110,89.289
1979,-582,181,93,-48,-114,89.299
1982,-579,173,97,-37,-109,89.309
1984,-581,167,85,-33,-90,89.319
1984,-580,174,70,-24,-64,89.329
1965,-573,196,48,-11,-48,89.339
1951,-568,187,17,-2,-23,89.349
1961,-555,180,-28,5,-6,89.359
1952,-557,191,-61,3,7,89.369
1963,-562,169,-74,0,-3,89.379
1960,-580,170,-75,1,-22,89.389
1957,-594,177,-53,-12,-46,89.399
1953,-589,178,-8,-20,-67,89.409
1951,-579,172,48,-25,-97,89.419
1957,-570,150,57,-32,-114,89.429
1974,-582,159,55,-39,-129,89.439
1987,-585,154,45,-32,-148,89.449
1977,-596,164,43,-23,-143,89.459
1969,-596,166,42,-31,-138,89.469
1972,-605,149,54,-29,-139,89.479
1957,-620,136,85,-42,-124,89.489
1950,-621,164,116,-53,-121,89.499
1978,-630,160,155,-66,-125,89.509
2000,-610,150,170,-73,-126,89.519
2015,-604,150,177,-64,-143,89.529
2021,-600,152,152,-52,-153,89.539
2023,-605,164,129,-38,-147,89.549
2028,-603,157,121,-21,-145,89.559
2020,-612,147,85,-8,-128,89.569
2017,-600,159,46,21,-101,89.579
2002,-605,156,14,42,-72,89.589
1997,-589,135,-18,60,-46,89.599
1993,-582,149,-47,68,-15,89.609
1983,-586,138,-56,70,-7,89.619
1968,-593,140,-54,48,4,89.629
1970,-594,129,-32,40,10,89.639
1964,-601,133,23,14,-15,89.649
1968,-593,124,67,-7,-42,89.659
1973,-579,133,110,-24,-63,89.669
1974,-567,139,136,-28,-94,89.679
1977,-564,143,138,-44,-128,89.689
1964,-567,151,110,-34,-147,89.699
1967,-555,153,69,-29,-159,89.709
1972,-552,149,38,-22,-169,89.719
1984,-566,147,3,-8,-162,89.729
1968,-575,159,-17,4,-146,89.739
1969,-577,146,-26,8,-135,89.749
1970,-571,166,-45,8,-99,89.759
1976,-549,171,-88,15,-65,89.769
1982,-542,150,-158,19,-38,89.779
1975,-523,133,-252,18,-2,89.789
1971,-525,133,-335,30,10,89.799
1957,-537,135,-402,29,25,89.809
1943,-557,152,-426,26,29,89.819
1949,-572,152,-391,10,16,89.829
1981,-594,160,-313,9,18,89.839
1984,-612,165,-212,-16,-9,89.849
1983,-618,171,-112,-20,-37,89.859
1987,-609,161,1,-20,-63,89.869
2007,-581,184,77,-9,-88,89.879
2017,-563,178,77,2,-94,89.889
2000,-540,152,30,41,-89,89.899
1996,-535,136,-59,72,-61,89.909
1988,-532,119,-137,69,-41,89.919
1991,-528,108,-222,78,-27,89.929
2000,-551,102,-277,66,3,89.939
2007,-582,105,-286,52,-5,89.949
2009,-614,105,-232,17,-15,89.959
2024,-627,101,-102,-24,-41,89.969
2004,-635,115,52,-70,-87,89.979
1990,-612,120,193,-116,-127,89.989
1970,-602,113,310,-150,-169,89.999
1987,-580,138,372,-164,-202,90.009
1990,-588,154,389,-160,-235,90.019
1968,-576,162,415,-143,-259,90.029
1940,-573,178,416,-138,-250,90.039
1937,-554,187,412,-123,-223,90.049
1930,-554,168,365,-105,-192,90.059
1945,-571,157,303,-61,-160,90.069
1957,-577,159,247,-31,-134,90.079
1977,-561,153,188,-10,-108,90.089
1987,-561,156,132,2,-83,90.099
2005,-575,142,122,3,-59,90.109
1996,-572,131,103,20,-33,90.119
1984,-562,124,93,18,-7,90.129
1992,-546,122,55,31,14,90.139
1991,-566,115,11,50,37,90.149
1980,-565,127,-19,39,29,90.159
1980,-558,126,-40,38,36,90.169
1977,-551,117,-50,39,36,90.179
1990,-565,124,-46,32,54,90.189
2008,-569,127,-19,38,47,90.199
2019,-577,127,10,41,43,90.209
2019,-571,129,30,36,38,90.219
2009,-557,105,20,43,40,90.229
1993,-555,139,12,54,52,90.239
1992,-546,107,4,57,58,90.249
1995,-544,132,-21,70,68,90.259
1991,-557,133,-50,71,74,90.269
1995,-564,117,-59,81,82,90.279
2003,-561,139,-49,101,84,90.289
2005,-550,125,-55,115,100,90.299
2002,-549,119,-79,125,104,90.309
1993,-542,129,-119,131,104,90.319
1986,-545,127,-148,135,101,90.329
1968,-553,130,-168,150,96,90.339
1966,-552,147,-180,151,99,90.349
1953,-547,122,-190,149,101,90.359
1948,-550,135,-190,152,102,90.369
1957,-557,130,-178,154,101,90.379
1975,-561,119,-163,149,90,90.389
1977,-561,109,-137,170,77,90.399
1971,-557,109,-127,158,53,90.409
1985,-562,113,-118,157,48,90.419
1998,-573,114,-112,147,27,90.429
1997,-570,102,-105,151,9,90.439
1997,-571,120,-100,137,-17,90.449
1994,-575,118,-107,131,-30,90.459
2001,-573,113,-101,119,-40,90.469
1983,-568,105,-107,108,-39,90.479
1973,-568,105,-118,99,-32,90.489
1959,-574,108,-110,87,-35,90.499
1943,-581,119,-95,71,-27,90.509
1953,-581,120,-86,48,-32,90.519
1949,-586,124,-53,18,-36,90.529
1961,-596,135,-7,-5,-53,90.539
1958,-596,136,44,-17,-77,90.549
1938,-603,131,103,-33,-104,90.559
1929,-589,134,176,-51,-127,90.569
1925,-594,142,217,-62,-160,90.579
1916,-583,146,241,-69,-179,90.589
1918,-582,135,248,-84,-199,90.599
1916,-584,141,245,-85,-198,90.609
1916,-572,134,230,-104,-202,90.619
1914,-578,136,204,-110,-197,90.629
1905,-591,126,183,-128,-193,90.639
1908,-608,127,186,-144,-178,90.649
1939,-621,109,218,-171,-180,90.659
1979,-642,124,276,-194,-175,90.669
1999,-644,147,337,-198,-185,90.679
1999,-645,151,403,-183,-209,90.689
1989,-625,146,439,-190,-212,90.699
1999,-614,151,452,-177,-212,90.709
2036,-596,151,416,-150,-210,90.719
2078,-608,138,339,-88,-201,90.729
2088,-623,154,248,-53,-194,90.739
2086,-622,165,194,4,-183,90.749
2080,-619,166,133,39,-142,90.759
2080,-624,166,92,79,-86,90.769
2070,-621,163,47,116,-18,90.779
2041,-627,165,9,141,53,90.789
2013,-636,159,-11,168,120,90.8
1959,-611,139,-21,178,189,90.81
1913,-595,126,-33,181,256,90.82
1892,-608,120,-24,162,309,90.829
1881,-613,113,-6,154,336,90.84
1879,-591,102,35,132,346,90.85
1859,-589,85,70,115,333,90.86
1868,-581,94,116,70,302,90.87
1872,-563,89,133,47,262,90.88
1884,-557,100,158,21,218,90.89
1909,-556,98,168,-4,180,90.9
1946,-551,106,168,-13,126,90.91
1985,-559,104,144,-15,67,90.92
2008,-555,116,94,-4,1,90.93
2020,-571,125,55,9,-47,90.94
2038,-575,124,47,17,-76,90.95
2043,-576,115,39,33,-78,90.96
2054,-562,113,10,51,-76,90.97
2058,-570,114,-39,65,-61,90.98
2045,-601,122,-73,83,-37,90.99
2033,-595,117,-90,97,-10,91
2039,-587,111,-107,85,31,91.01
2040,-582,133,-125,96,71,91.02
2023,-575,128,-144,101,119,91.03
2036,-580,129,-153,97,154,91.04
2037,-582,121,-166,105,174,91.05
2036,-576,138,-164,108,176,91.06
2067,-582,149,-166,123,160,91.07
2045,-581,133,-166,153,145,91.08
2018,-558,135,-167,165,127,91.09
1986,-553,143,-165,184,111,91.1
1951,-561,146,-158,182,106,91.11
1925,-554,140,-154,185,97,91.12
1902,-559,146,-157,161,89,91.13
1923,-567,122,-145,157,69,91.14
1914,-567,124,-116,138,46,91.15
1936,-574,118,-63,107,13,91.16
1949,-591,106,5,71,-20,91.17
1945,-603,100,86,35,-57,91.18
1943,-601,109,178,-8,-115,91.19
1932,-598,97,247,-51,-166,91.2
1918,-596,119,305,-79,-200,91.21
1908,-594,113,359,-123,-233,91.22
1911,-588,117,372,-144,-256,91.23
1911,-570,105,355,-177,-274,91.24
1917,-575,118,329,-190,-295,91.25
1924,-584,151,317,-203,-286,91.26
1950,-600,147,310,-203,-293,91.27
1980,-620,143,330,-198,-297,91.28
2004,-642,145,366,-188,-309,91.29
2009,-643,162,408,-169,-314,91.3
2023,-647,157,442,-156,-290,91.31
2017,-631,171,456,-132,-275,91.32
2032,-612,173,447,-108,-251,91.33
2058,-627,161,412,-88,-216,91.34
2080,-625,178,369,-36,-172,91.35
2078,-623,178,331,0,-142,91.36
2069,-618,179,278,50,-97,91.37
2063,-606,178,220,96,-45,91.38
2062,-593,174,161,147,2,91.39
2018,-590,158,78,189,38,91.4
1987,-570,161,-9,220,68,91.41
1967,-572,154,-100,253,94,91.42
1969,-590,146,-155,259,116,91.43
1992,-595,138,-171,269,126,91.44
2022,-616,160,-137,262,121,91.45
2027,-633,162,-91,261,90,91.46
2038,-634,152,-5,251,58,91.47
2049,-617,132,58,246,17,91.48
2031,-603,114,101,251,-25,91.49
1973,-584,113,111,239,-63,91.5
1952,-561,123,80,206,-85,91.51
1962,-580,143,48,170,-106,91.52
1985,-599,153,41,144,-124,91.53
1989,-620,173,54,114,-144,91.54
1995,-628,180,115,85,-142,91.55
2018,-636,184,184,66,-141,91.56
2010,-619,183,246,76,-123,91.57
1988,-626,198,297,91,-98,91.58
1994,-608,224,335,111,-70,91.59
1985,-586,221,338,161,-33,91.6
1942,-555,228,326,207,-12,91.61
1930,-533,215,254,244,32,91.62
1924,-539,181,177,271,75,91.63
1934,-562,174,153,317,82,91.64
1916,-580,185,173,313,85,91.65
1916,-571,162,212,324,83,91.66
1933,-566,153,247,303,55,91.67
1936,-563,128,252,288,20,91.68
1936,-554,118,252,282,-32,91.69
1939,-539,118,210,256,-83,91.7
1939,-517,107,151,232,-117,91.71
1933,-520,114,55,216,-149,91.72
1945,-525,124,-36,214,-169,91.73
1946,-552,110,-125,204,-181,91.74
1960,-576,111,-172,199,-189,91.75
1951,-581,109,-201,191,-195,91.76
1941,-585,122,-209,184,-171,91.77
1930,-593,116,-211,144,-157,91.78
1931,-601,132,-204,131,-123,91.79
1932,-599,120,-195,94,-98,91.8
1960,-598,117,-190,50,-66,91.81
1977,-606,125,-183,6,-32,91.82
2001,-625,130,-149,-42,-17,91.83
2005,-641,161,-97,-78,-15,91.84
1981,-634,165,-11,-115,-9,91.85
1954,-613,172,77,-154,12,91.86
1906,-595,179,152,-188,29,91.87
1903,-578,183,204,-224,35,91.88
1945,-600,183,230,-247,33,91.89
1948,-595,190,260,-233,5,91.9
1949,-596,201,291,-252,-21,91.91
1951,-585,226,319,-255,-35,91.92
1919,-567,236,358,-256,-52,91.93
1887,-564,242,384,-252,-48,91.94
1865,-558,236,396,-269,-52,91.95
1917,-558,212,373,-257,-63,91.96
1965,-561,197,331,-239,-85,91.97
2024,-589,210,264,-213,-111,91.98
2029,-596,223,231,-160,-141,91.99
2007,-583,225,214,-150,-153,92
2003,-588,230,192,-133,-142,92.01
1992,-597,221,176,-117,-122,92.02
1962,-594,213,158,-84,-108,92.03
1951,-603,207,111,-49,-79,92.04
1949,-592,184,68,-42,-38,92.05
1974,-589,196,15,-32,17,92.06
2042,-606,175,-38,-10,60,92.07
2069,-623,188,-78,28,103,92.08
2047,-622,209,-111,44,133,92.09
2022,-621,188,-124,54,168,92.1
2006,-610,210,-110,45,210,92.11
1995,-598,190,-102,69,244,92.12
1982,-581,190,-130,85,277,92.13
1953,-587,188,-160,109,304,92.14
1940,-586,160,-183,122,313,92.15
1922,-570,140,-191,130,337,92.16
1902,-560,135,-195,132,354,92.17
1919,-563,129,-193,101,352,92.18
1970,-597,137,-150,69,309,92.19
1991,-631,143,-68,35,228,92.2
1971,-628,146,24,7,126,92.21
1946,-602,148,109,-31,22,92.22
1947,-590,138,166,-42,-45,92.23
1954,-577,119,173,-48,-102,92.24
1954,-563,115,163,-35,-131,92.25
1927,-550,115,79,-29,-148,92.26
1917,-554,111,-20,-31,-145,92.27
1926,-577,140,-107,-46,-118,92.28
1958,-587,127,-151,-43,-87,92.29
1987,-621,144,-137,-76,-62,92.3
2004,-649,146,-77,-103,-39,92.31
2027,-673,130,27,-126,-44,92.32
2023,-682,139,164,-148,-43,92.33
2019,-657,140,257,-157,-48,92.34
1994,-631,163,307,-161,-61,92.35
2008,-605,160,288,-144,-67,92.36
2007,-595,170,233,-114,-75,92.37
1990,-573,176,124,-92,-72,92.38
2006,-568,158,21,-61,-67,92.39
2023,-575,190,-77,-17,-48,92.4
2014,-583,192,-183,23,-30,92.41
2004,-595,170,-255,63,-2,92.42
1989,-617,148,-267,76,40,92.43
1975,-630,146,-248,80,52,92.44
1959,-638,141,-188,58,50,92.45
1940,-653,166,-114,29,56,92.46
1934,-649,142,2,-10,44,92.47
1948,-642,136,129,-50,10,92.48
1954,-636,153,241,-87,-21,92.49
1945,-609,154,293,-111,-76,92.5
1940,-601,169,306,-119,-134,92.51
1934,-591,184,289,-121,-166,92.52
1933,-576,151,248,-101,-206,92.53
1933,-568,148,179,-74,-208,92.54
1935,-573,142,108,-56,-215,92.55
1946,-608,176,61,-43,-204,92.56
1968,-628,163,51,-32,-190,92.57
1991,-658,161,80,-28,-176,92.58
1997,-648,160,116,-5,-158,92.59
1993,-638,167,147,4,-122,92.6
1999,-630,143,163,9,-84,92.61
2026,-603,162,147,24,-55,92.62
2046,-589,134,73,49,-29,92.63
2073,-588,152,-39,87,-4,92.64
2069,-579,144,-160,125,19,92.65
2050,-565,170,-285,180,42,92.66
2043,-568,158,-389,208,86,92.67
2020,-578,157,-465,244,131,92.68
2000,-600,141,-511,272,162,92.69
1984,-614,151,-521,272,191,92.7
1972,-624,153,-480,272,202,92.71
1978,-635,134,-424,273,202,92.72
1982,-611,153,-341,260,201,92.73
1975,-596,147,-278,236,199,92.74
1961,-599,149,-241,209,182,92.75
1959,-586,145,-203,209,152,92.76
1951,-570,135,-194,187,132,92.77
1942,-568,125,-202,178,101,92.78
1929,-565,113,-203,166,67,92.79
1928,-571,123,-183,150,19,92.8
1923,-571,148,-154,134,-13,92.81
1917,-586,138,-117,114,-65,92.82
1914,-588,134,-61,86,-101,92.83
1921,-597,131,-5,67,-162,92.84
1933,-597,128,47,38,-227,92.85
1922,-612,128,123,8,-287,92.86
1929,-611,132,182,-10,-346,92.87
1947,-615,152,232,-56,-393,92.88
1963,-606,141,271,-59,-431,92.89
1955,-593,159,276,-81,-466,92.9
1967,-611,158,257,-88,-496,92.91
1966,-616,159,237,-85,-513,92.92
1951,-613,164,220,-92,-523,92.93
1965,-618,160,204,-81,-506,92.94
1957,-629,155,177,-80,-481,92.95
1981,-655,159,189,-66,-450,92.96
1990,-666,161,200,-61,-412,92.97
2009,-666,158,224,-55,-390,92.98
2004,-667,157,252,-53,-345,92.99
1994,-656,164,270,-59,-311,93
1999,-658,169,277,-66,-268,93.01
1995,-655,173,293,-64,-227,93.02
1984,-648,170,299,-64,-187,93.03
1975,-637,163,292,-60,-149,93.04
1981,-635,170,256,-40,-107,93.05
1981,-617,169,219,-20,-88,93.06
1980,-613,173,161,9,-50,93.07
1970,-610,171,126,44,-26,93.08
1982,-609,173,89,65,-3,26587.01
1969,-615,181,63,73,8,26587.02
1985,-633,160,53,82,24,26587.029
1990,-640,167,62,92,28,26587.039
1991,-631,143,88,85,37,26587.049
1998,-623,157,110,90,49,26587.059
1990,-632,160,137,88,55,26587.068
1981,-633,154,153,83,61,26587.078
1983,-625,154,170,70,76,26587.088
1967,-607,135,186,75,90,26587.098
1958,-603,147,182,69,104,26587.107
1961,-606,141,176,65,119,26587.117
1977,-604,155,169,65,112,26587.127
1974,-602,160,165,77,105,26587.137
1978,-584,166,161,79,109,26587.146
1980,-583,162,153,82,116,26587.156
1972,-576,162,133,78,123,26587.166
1965,-575,158,98,105,138,26587.176
1969,-585,150,74,104,153,26587.186
1961,-578,145,53,108,177,26587.195
1967,-580,131,49,118,192,26587.205
1957,-587,142,45,120,211,26587.215
1968,-583,143,48,103,222,26587.225
1951,-594,162,78,108,242,26587.234
1950,-591,143,118,92,241,26587.244
1955,-582,149,137,64,226,26587.254
1960,-576,144,180,54,221,26587.264
1951,-571,129,195,47,202,26587.273
1956,-567,132,200,23,161,26587.283
1950,-563,150,215,23,134,26587.293
1951,-570,137,222,21,96,26587.303
1963,-560,149,225,17,55,26587.313
1968,-554,146,207,13,33,26587.322
1962,-556,139,183,11,-5,26587.332
1965,-565,142,169,3,-39,26587.342
1955,-576,152,161,6,-53,26587.352
1944,-578,160,164,-5,-62,26587.361
1948,-567,144,165,-15,-66,26587.371
1946,-583,174,155,-22,-58,26587.381
1953,-596,173,151,-30,-63,26587.391
1962,-586,157,150,-28,-60,26587.4
1964,-591,163,146,-32,-64,26587.41
1963,-596,158,137,-36,-51,26587.42
1967,-596,181,132,-27,-55,26587.43
1969,-607,168,130,-35,-45,26587.439
1970,-610,167,128,-22,-38,26587.449
1987,-612,171,136,-27,-43,26587.459
2008,-622,181,145,-20,-47,26587.469
2017,-622,177,168,-7,-43,26587.479
2049,-630,159,193,-3,-63,26587.488
2044,-636,178,227,1,-64,26587.498
2032,-637,191,264,14,-67,26587.508
2013,-625,205,290,21,-63,26587.518
1987,-618,209,297,30,-57,26587.527
1973,-609,199,268,55,-43,26587.537
1961,-601,197,218,83,-5,26587.547
1944,-589,193,154,110,28,26587.557
1933,-586,193,87,144,50,26587.566
1948,-584,179,0,174,97,26587.576
1948,-597,188,-65,202,130,26587.586
1943,-607,163,-118,219,160,26587.596
1942,-610,151,-147,224,165,26587.605
1936,-623,151,-139,220,163,26587.615
1936,-630,147,-118,195,168,26587.625
1927,-634,143,-73,177,150,26587.635
1935,-636,139,-38,154,136,26587.645
1926,-621,138,-5,138,133,26587.654
1934,-607,118,-12,125,123,26587.664
1933,-615,116,-36,111,112,26587.674
1929,-596,99,-91,126,113,26587.684
1942,-597,115,-141,115,127,26587.693
1949,-611,124,-172,106,137,26587.703
1960,-623,113,-189,90,131,26587.713
1965,-638,123,-171,63,137,26587.723
1971,-647,133,-126,44,126,26587.732
1998,-658,118,-67,27,119,26587.742
2004,-653,126,-6,3,107,26587.752
2007,-641,141,30,-11,87,26587.762
1989,-624,139,63,-28,68,26587.771
1974,-611,154,58,-42,70,26587.781
1954,-602,148,46,-54,61,26587.791
1920,-590,139,15,-64,57,26587.801
1918,-583,160,-16,-77,51,26587.811
1910,-606,167,-35,-91,53,26587.82
1914,-622,165,3,-111,30,26587.83
1939,-625,175,58,-123,-2,26587.84
1943,-643,174,140,-140,-49,26587.85
1943,-646,172,217,-146,-101,26587.859
1936,-657,175,294,-170,-158,26587.869
1960,-637,164,359,-188,-215,26587.879
1978,-634,158,393,-188,-264,26587.889
1979,-630,171,392,-183,-287,26587.898
1975,-613,175,358,-189,-312,26587.908
1964,-626,182,310,-195,-309,26587.918
1971,-636,174,265,-196,-317,26587.928
1963,-641,174,255,-188,-315,26587.938
1963,-641,178,239,-186,-298,26587.947
1966,-649,185,254,-193,-281,26587.957
1967,-676,193,287,-198,-267,26587.967
1977,-679,183,329,-183,-260,26587.977
1987,-683,181,379,-181,-243,26587.986
1996,-671,191,414,-182,-236,26588.01
2006,-670,186,426,-179,-219,26588.02
1998,-662,195,437,-161,-207,26588.029
1994,-660,179,428,-153,-202,26588.039
1972,-651,194,406,-152,-173,26588.049
1984,-652,190,390,-137,-159,26588.059
1972,-651,199,359,-109,-142,26588.068
1969,-650,201,335,-97,-127,26588.078
1990,-666,174,311,-80,-108,26588.088
2001,-659,172,304,-50,-104,26588.098
1986,-666,184,294,-44,-81,26588.107
1981,-676,164,286,-25,-73,26588.117
1972,-675,166,297,-13,-49,26588.127
1971,-677,169,337,-13,-34,26588.137
1943,-684,171,375,-31,-23,26588.146
1940,-672,162,413,-38,-3,26588.156
1940,-670,180,435,-40,14,26588.166
1946,-664,166,456,-40,32,26588.176
1948,-655,162,468,-39,33,26588.186
1968,-653,146,447,-32,42,26588.195
1970,-653,143,450,-8,50,26588.205
1981,-653,162,458,1,62,26588.215
1978,-661,171,464,14,63,26588.225
1964,-647,164,476,28,84,26588.234
1965,-646,157,486,47,95,26588.244
1971,-636,161,483,52,113,26588.254
1978,-643,141,471,68,122,26588.264
1980,-626,135,453,89,130,26588.273
1982,-628,138,418,110,140,26588.283
1985,-611,130,389,117,156,26588.293
1991,-615,135,336,140,168,26588.303
1977,-611,123,317,141,170,26588.313
1972,-614,123,284,137,176,26588.322
1968,-610,106,240,141,183,26588.332
1964,-611,102,207,132,181,26588.342
1948,-605,107,168,121,180,26588.352
1938,-606,118,145,98,166,26588.361
1939,-616,118,149,73,163,26588.371
1928,-621,129,157,43,137,26588.381
1930,-621,156,184,22,110,26588.391
1933,-620,170,209,-10,87,26588.4
1929,-626,172,226,-17,73,26588.41
1909,-617,160,227,-22,63,26588.42
1899,-608,174,220,-30,66,26588.43
1903,-602,175,198,-23,70,26588.439
1923,-603,185,157,-9,87,26588.449
1918,-611,199,126,-7,87,26588.459
1926,-621,222,117,-25,93,26588.469
1937,-628,232,98,-18,99,26588.479
1922,-636,226,126,-10,116,26588.488
1956,-653,216,185,-16,120,26588.498
1980,-647,202,245,-1,148,26588.508
1999,-653,220,275,20,152,26588.518
2009,-640,230,276,50,153,26588.527
1983,-623,225,241,77,145,26588.537
1980,-590,205,192,87,157,26588.547
1989,-571,221,114,92,160,26588.557
1993,-566,219,9,112,164,26588.566
2004,-603,232,-79,120,154,26588.576
1997,-636,229,-114,127,143,26588.586
2001,-633,238,-98,140,125,26588.596
1980,-625,230,-68,152,108,26588.605
1962,-625,235,-43,164,104,26588.615
1935,-610,244,-32,170,105,26588.625
1933,-590,245,-47,172,90,26588.635
1962,-592,227,-85,183,82,26588.645
1977,-615,229,-108,191,46,26588.654
1979,-633,235,-121,192,4,26588.664
1979,-645,247,-98,175,-39,26588.674
1990,-657,240,-23,152,-90,26588.684
1973,-678,248,75,120,-150,26588.693
1975,-697,242,189,82,-214,26588.703
1984,-708,253,286,67,-282,26588.713
1980,-703,243,400,59,-348,26588.723
1959,-692,251,466,38,-410,26588.732
1940,-688,243,504,31,-465,26588.742
1954,-697,240,532,20,-504,26588.752
1941,-701,266,567,33,-531,26588.762
1890,-695,250,593,40,-545,26588.771
1869,-682,259,609,10,-532,26588.781
1865,-690,255,604,-16,-520,26588.791
1872,-705,249,626,-33,-520,26588.801
1903,-712,268,653,-54,-521,26588.811
1959,-695,269,630,-84,-530,26588.82
2017,-659,250,580,-76,-539,26588.83
2022,-649,239,518,-58,-537,26588.84
1973,-666,259,499,-58,-529,26588.85
1954,-680,283,535,-77,-507,26588.859
1970,-705,280,609,-85,-489,26588.869
1979,-734,271,730,-101,-465,26588.879
1981,-747,265,905,-133,-435,26588.889
1963,-764,269,1151,-180,-406,26588.898
1976,-757,276,1395,-228,-386,26588.908
1991,-728,279,1636,-277,-359,26588.918
1975,-703,270,1831,-298,-331,26588.928
1954,-668,258,1975,-324,-304,26588.938
1964,-619,237,2039,-323,-273,26588.947
1989,-585,245,2028,-325,-251,26589.01
1996,-554,258,1962,-285,-211,26589.02
1983,-528,273,1849,-237,-215,26589.029
1976,-492,271,1689,-196,-190,26589.039
2001,-461,258,1482,-133,-192,26589.049
2007,-464,250,1278,-79,-179,26589.059
2020,-488,256,1126,-36,-189,26589.068
2020,-516,274,1023,3,-190,26589.078
2017,-511,278,942,54,-203,26589.088
2013,-519,265,855,81,-201,26589.098
1991,-511,263,788,115,-184,26589.107
1942,-507,261,746,149,-183,26589.117
1912,-491,266,685,202,-176,26589.127
1867,-459,224,665,179,-158,26589.137
1860,-416,248,550,198,-175,26589.146
1828,-387,220,446,158,-207,26589.156
1923,-424,227,363,89,-245,26589.166
2024,-444,230,381,89,-334,26589.176
2013,-475,224,428,58,-424,26589.186
1980,-503,239,511,19,-532,26589.195
1962,-516,220,624,-27,-615,26589.205
2006,-535,196,742,-81,-696,26589.215
2047,-533,186,847,-89,-758,26589.225
2061,-554,201,981,-101,-803,26589.234
2004,-536,203,1118,-100,-836,26589.244
1954,-502,189,1190,-169,-818,26589.254
2040,-500,201,1203,-210,-776,26589.264
2088,-506,237,1231,-222,-722,26589.273
2014,-504,279,1302,-230,-670,26589.283
1961,-464,288,1369,-273,-589,26589.293
1985,-453,282,1404,-292,-493,26589.303
1997,-448,255,1429,-277,-413,26589.313
1952,-438,238,1447,-262,-323,26589.322
1920,-408,223,1421,-243,-272,26589.332
1942,-366,229,1433,-266,-214,26589.342
1973,-366,239,1364,-242,-166,26589.352
1971,-371,264,1269,-199,-150,26589.361
1960,-379,283,1220,-203,-113,26589.371
1986,-369,297,1178,-223,-73,26589.381
1989,-399,282,1149,-222,-28,26589.391
1985,-421,303,1163,-230,25,26589.4
1981,-434,334,1192,-225,74,26589.41
1962,-469,355,1239,-233,142,26589.42
1993,-483,364,1299,-229,224,26589.43
2029,-407,318,1299,-173,297,26589.439
2070,-335,274,1239,-110,368,26589.449
2064,-313,264,1074,-20,453,26589.459
2016,-304,246,884,78,501,26589.469
1956,-303,236,728,163,552,26589.479
1911,-294,249,563,249,585,26589.488
1864,-262,222,377,328,622,26589.498
1866,-266,219,179,367,665,26589.508
1900,-285,183,-7,396,685,26589.518
1995,-323,171,-167,422,708,26589.527
2085,-346,139,-266,465,714,26589.537
2145,-357,130,-371,498,741,26589.547
2180,-350,114,-530,553,756,26589.557
2192,-304,89,-755,585,791,26589.566
2186,-274,81,-1025,635,820,26589.576
2142,-264,87,-1349,659,832,26589.586
2115,-288,85,-1659,659,842,26589.596
2140,-278,93,-1958,675,843,26589.605
2154,-251,83,-2308,712,829,26589.615
2151,-240,87,-2680,728,830,26589.625
2108,-243,98,-3038,741,798,26589.635
2071,-281,117,-3366,746,761,26589.645
2015,-331,136,-3622,751,701,26589.654
1961,-392,167,-3783,743,632,26589.664
1918,-438,180,-3848,733,557,26589.674
1897,-490,181,-3850,701,483,26589.684
1909,-520,164,-3800,668,405,26589.693
1934,-581,146,-3693,633,324,26589.703
1930,-647,133,-3526,578,250,26589.713
1933,-659,152,-3300,517,151,26589.723
1919,-680,161,-3066,434,65,26589.732
1894,-697,183,-2811,348,6,26589.742
1896,-731,213,-2511,238,-56,26589.752
1889,-746,190,-2214,125,-116,26589.762
1907,-752,193,-1888,2,-159,26589.771
1929,-772,190,-1555,-115,-204,26589.781
1952,-799,176,-1217,-219,-241,26589.791
1948,-791,178,-889,-309,-280,26589.801
1980,-779,185,-623,-390,-303,26589.811
2018,-770,183,-387,-445,-307,26589.82
2028,-740,182,-216,-477,-317,26589.83
2001,-703,164,-106,-490,-307,26589.84
1981,-667,160,-58,-530,-291,26589.85
1983,-639,169,-74,-543,-293,26589.859
1978,-623,185,-135,-548,-279,26589.869
2008,-605,190,-245,-533,-282,26589.879
2030,-594,172,-394,-501,-299,26589.889
2038,-574,150,-578,-461,-321,26589.898
2042,-564,147,-802,-402,-349,26589.908
2019,-544,121,-1047,-338,-392,26589.918
1986,-544,118,-1293,-295,-442,26589.928
1957,-563,132,-1500,-275,-477,26589.938
1941,-611,151,-1642,-251,-518,26589.947
1934,-644,166,-1693,-236,-561,26589.957
1922,-660,146,-1696,-231,-602,26590.01
1912,-683,145,-1640,-256,-637,26590.02
1928,-713,129,-1538,-257,-663,26590.029
1950,-735,122,-1401,-277,-705,26590.039
1977,-730,143,-1227,-273,-717,26590.049
1992,-733,131,-1058,-276,-715,26590.059
1994,-700,143,-924,-267,-707,26590.068
2027,-661,108,-849,-245,-685,26590.078
2029,-652,88,-854,-221,-662,26590.088
2008,-628,68,-869,-203,-634,26590.098
1962,-641,73,-883,-212,-613,26590.107
1967,-654,71,-855,-220,-597,26590.117
1964,-667,99,-805,-265,-595,26590.127
1967,-686,141,-698,-289,-588,26590.137
1966,-700,134,-545,-331,-583,26590.146
1983,-730,127,-341,-367,-587,26590.156
1982,-744,123,-79,-399,-592,26590.166
1983,-744,108,189,-440,-589,26590.176
1978,-733,109,454,-448,-581,26590.186
1975,-706,100,670,-458,-568,26590.195
1968,-685,116,829,-452,-525,26590.205
1960,-666,131,947,-439,-491,26590.215
1948,-623,153,1004,-431,-451,26590.225
1965,-588,144,993,-396,-389,26590.234
1990,-582,139,940,-370,-315,26590.244
2011,-584,137,873,-311,-253,26590.254
2021,-578,126,794,-234,-191,26590.264
2012,-560,135,711,-171,-126,26590.273
2016,-556,128,629,-120,-48,26590.283
2038,-540,122,533,-61,4,26590.293
2047,-557,124,452,-16,61,26590.303
2055,-563,105,445,31,97,26590.313
2036,-520,97,427,58,119,26590.322
2037,-488,65,337,71,155,26590.332
2050,-483,62,251,115,184,26590.342
2063,-515,59,206,145,209,26590.352
2058,-531,64,198,176,225,26590.361
2051,-522,78,183,222,237,26590.371
2040,-528,53,162,236,261,26590.381
2040,-515,38,166,280,291,26590.391
2027,-510,36,151,302,320,26590.4
1978,-523,46,164,327,367,26590.41
1947,-509,36,173,345,420,26590.42
1921,-484,52,165,337,461,26590.43
1884,-444,42,112,345,537,26590.439
1876,-431,44,-10,353,622,26590.449
1837,-407,50,-177,367,703,26590.459
1821,-414,31,-352,386,775,26590.469
1834,-443,27,-515,397,854,26590.479
1879,-459,39,-671,414,898,26590.488
1881,-482,48,-793,457,934,26590.498
1891,-506,47,-886,484,946,26590.508
1901,-531,69,-954,500,957,26590.518
1931,-550,41,-985,525,943,26590.527
1968,-566,32,-996,535,913,26590.537
2003,-556,3,-1009,551,858,26590.547
2025,-542,-11,-1070,562,788,26590.557
2022,-561,-10,-1122,551,693,26590.566
2020,-565,-11,-1150,536,572,26590.576
2010,-594,-2,-1135,500,439,26590.586
1981,-594,25,-1064,448,307,26590.596
1988,-604,11,-980,393,168,26590.605
1990,-618,9,-862,333,60,26590.615
1975,-638,2,-736,293,-48,26590.625
1971,-638,-8,-585,227,-145,26590.635
1997,-648,-5,-425,172,-241,26590.645
2006,-651,-3,-238,137,-296,26590.654
1991,-659,4,-42,96,-333,26590.664
1974,-648,42,125,40,-353,26590.674
2002,-660,43,280,-10,-373,26590.684
2050,-666,39,429,-35,-376,26590.693
2047,-647,54,551,-42,-360,26590.703
2014,-604,35,631,-42,-324,26590.713
1999,-582,40,649,-50,-269,26590.723
2005,-564,31,644,-46,-205,26590.732
2030,-566,22,548,-4,-155,26590.742
2030,-551,29,446,24,-115,26590.752
2023,-547,38,314,60,-71,26590.762
2019,-564,45,208,87,-30,26590.771
2022,-578,39,133,90,-14,26590.781
2014,-598,56,102,88,-15,26590.791
2005,-628,86,103,82,-18,26590.801
2003,-658,89,175,81,-38,26590.811
2011,-658,81,270,64,-59,26590.82
2022,-657,73,358,81,-74,26590.83
2007,-644,65,419,94,-104,26590.84
2005,-633,50,430,110,-131,26590.85
2020,-617,34,418,138,-140,26590.859
2033,-607,35,380,153,-158,26590.869
2031,-589,61,302,182,-159,26590.879
2013,-581,50,220,199,-162,26590.889
1998,-583,62,117,198,-148,26590.898
1972,-584,62,37,201,-145,26590.908
1956,-607,57,-34,184,-122,26590.918
1954,-609,52,-72,185,-105,26590.928
1974,-624,63,-105,184,-77,26590.938
1988,-622,62,-112,175,-45,26590.947
2002,-618,48,-135,181,-19,26590.957
1986,-621,49,-134,182,10,26591.01
1979,-624,68,-121,177,39,26591.02
1963,-613,70,-97,182,62,26591.029
1945,-627,67,-65,184,86,26591.039
1932,-621,59,-24,162,104,26591.049
1926,-621,73,10,157,114,26591.059
1924,-610,84,38,153,131,26591.068
1921,-593,75,53,144,134,26591.078
1945,-578,88,32,162,149,26591.088
1939,-566,62,-20,166,158,26591.098
1933,-559,53,-92,166,160,26591.107
1934,-559,59,-173,170,161,26591.117
1930,-568,64,-216,157,157,26591.127
1905,-586,65,-243,144,149,26591.137
1874,-589,71,-243,126,135,26591.146
1880,-597,65,-229,94,122,26591.156
1898,-605,62,-197,63,118,26591.166
1917,-607,63,-163,52,79,26591.176
1898,-613,59,-143,26,59,26591.186
1892,-604,69,-136,20,24,26591.195
1914,-602,64,-123,9,-12,26591.205
1929,-625,82,-115,7,-42,26591.215
1921,-632,95,-94,0,-78,26591.225
1940,-636,85,-67,0,-115,26591.234
1956,-638,79,-65,-14,-137,26591.244
1991,-633,82,-71,-5,-163,26591.254
1989,-631,72,-78,-6,-184,26591.264
1972,-634,84,-83,-7,-198,26591.273
1986,-641,76,-106,-38,-209,26591.283
1992,-646,82,-105,-35,-215,26591.293
1991,-651,93,-99,-43,-217,26591.303
1987,-668,95,-69,-53,-220,26591.313
1981,-671,97,-23,-60,-212,26591.322
1984,-686,114,58,-78,-216,26591.332
1987,-673,106,119,-81,-226,26591.342
1983,-678,113,177,-83,-218,26591.352
1981,-667,101,213,-68,-211,26591.361
1964,-658,104,250,-76,-209,26591.371
1961,-651,104,251,-67,-200,26591.381
1964,-635,89,243,-57,-190,26591.391
1959,-634,112,230,-52,-190,26591.4
1952,-636,99,210,-31,-161,26591.41
1950,-638,92,183,-35,-146,26591.42
1941,-636,108,160,-28,-127,26591.43
1954,-650,115,138,-22,-102,26591.439
1961,-645,98,130,-15,-86,26591.449
1961,-644,90,117,-1,-64,26591.459
1964,-647,82,121,5,-44,26591.469
1973,-650,100,122,16,-29,26591.479
1969,-651,78,139,24,-5,26591.488
1979,-644,92,146,33,11,26591.498
1985,-643,85,161,45,21,26591.508
1990,-648,76,178,44,28,26591.518
1994,-644,71,200,33,37,26591.527
1998,-642,54,217,49,43,26591.537
2003,-634,66,234,33,35,26591.547
2012,-635,59,255,39,36,26591.557
1991,-629,75,277,25,43,26591.566
1986,-631,68,299,14,37,26591.576
1977,-623,57,319,4,32,26591.586
1961,-626,69,341,3,23,26591.596
1935,-624,63,367,-11,10,26591.605
1924,-615,72,381,-6,3,26591.615
1928,-604,75,411,-10,-9,26591.625
1935,-612,63,428,-11,-27,26591.635
1959,-621,73,432,-3,-47,26591.645
1949,-616,58,437,6,-61,26591.654
1952,-615,64,440,12,-59,26591.664
1947,-599,65,432,15,-60,26591.674
1932,-597,75,394,25,-60,26591.684
1924,-590,60,357,34,-43,26591.693
1919,-593,75,300,40,-23,26591.703
1921,-602,60,244,38,-6,26591.713
1957,-606,51,171,56,22,26591.723
1969,-601,64,114,68,39,26591.732
1975,-600,61,55,76,70,26591.742
1987,-598,43,-1,93,89,26591.752
1981,-604,34,-56,92,113,26591.762
1981,-608,36,-91,98,131,26591.771
1985,-618,44,-124,85,153,26591.781
1975,-623,45,-150,84,176,26591.791
1966,-619,48,-159,69,184,26591.801
1978,-627,60,-149,61,211,26591.811
1982,-614,59,-156,51,223,26591.82
2000,-615,49,-152,51,239,26591.83
2005,-622,65,-178,75,246,26591.84
1998,-610,58,-196,86,251,26591.85
1996,-606,54,-208,99,255,26591.859
2019,-609,54,-227,107,260,26591.869
2010,-611,54,-240,124,251,26591.879
2023,-612,70,-244,117,229,26591.889
2024,-632,74,-219,113,201,26591.898
2031,-639,67,-181,100,171,26591.908
2021,-636,76,-128,90,128,26591.918
2018,-643,91,-51,68,102,26591.928
2012,-655,89,11,51,79,26591.938
1998,-649,83,83,56,53,26591.947
1982,-644,84,145,40,31,26591.957
1943,-620,93,204,52,36,26591.967
1927,-610,82,221,45,57,26592.01
1934,-596,91,205,41,71,26592.02
1941,-577,101,160,55,99,26592.029
1949,-550,102,87,77,108,26592.039
1962,-547,89,-7,88,128,26592.049
1971,-537,69,-106,113,131,26592.059
1983,-530,58,-207,112,124,26592.068
2009,-537,37,-314,120,105,26592.078
2007,-563,47,-396,116,48,26592.088
2006,-602,68,-428,81,-28,26592.098
1997,-623,86,-400,42,-123,26592.107
1984,-640,85,-299,2,-224,26592.117
1966,-654,96,-172,-44,-334,26592.127
1929,-664,91,-44,-87,-442,26592.137
1934,-693,119,97,-133,-549,26592.146
1941,-674,132,233,-150,-627,26592.156
1950,-639,111,304,-136,-677,26592.166
1955,-613,114,310,-109,-682,26592.176
1941,-583,122,244,-86,-669,26592.186
1948,-579,119,160,-54,-625,26592.195
1945,-586,73,82,-58,-557,26592.205
1945,-574,119,-3,-3,-482,26592.215
1952,-580,100,-96,9,-396,26592.225
1962,-591,101,-168,8,-305,26592.234
1965,-619,92,-159,-5,-232,26592.244
1977,-618,84,-133,-11,-173,26592.254
1975,-618,88,-112,-24,-134,26592.264
1986,-633,94,-66,-38,-109,26592.273
1993,-647,95,5,-51,-107,26592.283
1999,-626,91,58,-26,-117,26592.293
1989,-596,95,74,-13,-132,26592.303
1990,-583,75,59,-3,-147,26592.313
1999,-587,82,10,34,-170,26592.322
1983,-571,110,-63,45,-192,26592.332
1969,-558,81,-152,65,-221,26592.342
1970,-582,91,-222,69,-252,26592.352
1961,-602,101,-266,80,-266,26592.361
1955,-635,101,-258,67,-295,26592.371
1957,-642,78,-214,63,-324,26592.381
1970,-657,111,-149,54,-344,26592.391
1982,-668,94,-102,68,-362,26592.4
1993,-666,80,-51,76,-372,26592.41
1978,-655,90,-16,68,-371,26592.42
1973,-635,88,-19,82,-360,26592.43
1998,-624,92,-43,90,-326,26592.439
2005,-629,111,-88,106,-270,26592.449
2013,-634,102,-131,102,-231,26592.459
2018,-647,99,-140,122,-176,26592.469
2009,-658,103,-126,123,-118,26592.479
1999,-671,92,-89,123,-55,26592.488
1989,-669,89,-29,123,-12,26592.498
1997,-671,92,40,97,33,26592.508
1996,-676,101,108,91,49,26592.518
2008,-681,77,199,69,37,26592.527
2018,-681,87,287,49,26,26592.537
2015,-666,109,389,27,-6,26592.547
2010,-667,103,466,21,-24,26592.557
1997,-658,101,529,10,-57,26592.566
1983,-650,102,584,-4,-93,26592.576
1979,-645,104,591,5,-126,26592.586
1963,-652,111,591,13,-166,26592.596
1976,-637,108,598,20,-172,26592.605
1982,-627,120,573,44,-165,26592.615
1987,-599,99,513,79,-137,26592.625
1985,-594,100,409,110,-93,26592.635
1985,-599,90,310,149,-39,26592.645
1992,-590,93,184,169,19,26592.654
1992,-580,76,64,211,88,26592.664
1988,-575,79,-61,245,161,26592.674
1989,-565,69,-189,259,245,26592.684
1986,-566,86,-304,287,305,26592.693
1984,-575,76,-387,278,355,26592.703
2004,-585,67,-428,277,385,26592.713
1997,-599,82,-423,283,390,26592.723
1995,-592,95,-388,277,391,26592.732
1973,-582,98,-345,263,391,26592.742
1965,-573,116,-320,254,378,26592.752
1954,-562,113,-294,261,367,26592.762
1943,-548,94,-289,271,352,26592.771
1941,-537,94,-314,269,334,26592.781
1947,-520,99,-357,290,326,26592.791
1959,-519,127,-416,297,306,26592.801
1960,-539,141,-466,299,278,26592.811
1941,-547,131,-482,301,238,26592.82
1914,-559,149,-459,284,219,26592.83
1895,-571,153,-405,279,196,26592.84
1878,-579,166,-347,270,177,26592.85
1875,-583,137,-286,272,167,26592.859
1870,-587,144,-225,265,134,26592.869
1892,-586,129,-180,259,123,26592.879
1907,-584,126,-151,248,98,26592.889
1919,-586,122,-135,239,67,26592.898
1928,-583,107,-110,227,21,26592.908
1936,-600,124,-99,205,-34,26592.918
1955,-620,120,-52,191,-96,26592.928
1971,-628,126,-4,164,-154,26592.938
1969,-623,119,47,154,-210,26592.947
1975,-616,113,54,147,-245,26592.957
1990,-604,111,24,136,-287,26592.967
1995,-608,110,-45,139,-311,26593.01
1986,-603,115,-131,148,-346,26593.02
1972,-589,119,-226,152,-329,26593.029
1954,-592,133,-322,158,-315,26593.039
1939,-610,119,-377,152,-272,26593.049
1913,-656,135,-348,128,-237,26593.059
1911,-678,129,-337,138,-184,26593.068
1890,-672,130,-284,121,-164,26593.078
1883,-646,123,-277,95,-91,26593.088
1869,-647,106,-238,71,-43,26593.098
1878,-663,118,-202,35,-10,26593.107
1893,-643,109,-200,25,2,26593.117
1906,-661,122,-200,5,15,26593.127
1917,-674,140,-169,-17,6,26593.137
1933,-661,145,-124,-27,-13,26593.146
1940,-658,130,-77,-57,-39,26593.156
1958,-657,136,-50,-60,-61,26593.166
1976,-676,114,-40,-67,-103,26593.176
2002,-656,128,-41,-73,-139,26593.186
2025,-649,126,-77,-63,-166,26593.195
2035,-652,118,-123,-53,-187,26593.205
2038,-659,151,-152,-55,-209,26593.215
2037,-661,150,-173,-65,-216,26593.225
2034,-678,155,-146,-81,-229,26593.234
2041,-700,151,-112,-92,-233,26593.244
2033,-714,167,-23,-102,-223,26593.254
2005,-717,161,66,-125,-224,26593.264
1988,-706,173,169,-138,-207,26593.273
1971,-690,187,272,-174,-180,26593.283
1967,-692,183,385,-206,-147,26593.293
1972,-671,199,417,-188,-134,26593.303
1951,-686,175,495,-211,-117,26593.313
1975,-656,188,510,-170,-118,26593.322
1953,-656,173,557,-195,-92,26593.332
1963,-631,193,547,-162,-103,26593.342
1953,-628,191,575,-154,-83,26593.352
1953,-618,199,528,-111,-80,26593.361
1938,-613,179,508,-104,-66,26593.371
1932,-596,171,461,-82,-68,26593.381
1935,-606,148,411,-66,-55,26593.391
1941,-590,150,352,-54,-59,26593.4
1954,-593,143,301,-31,-66,26593.41
1964,-590,149,245,-33,-70,26593.42
1986,-592,146,200,-4,-77,26593.43
2000,-603,127,167,5,-79,26593.439
2023,-611,135,148,26,-74,26593.449
2008,-605,133,133,36,-79,26593.459
1999,-603,105,119,47,-57,26593.469
2000,-599,107,89,48,-34,26593.479
1983,-591,101,57,50,-12,26593.488
1974,-586,100,39,47,12,26593.498
1987,-595,91,22,31,24,26593.508
1994,-594,99,7,32,46,26593.518
1993,-603,90,16,33,47,26593.527
1997,-602,99,24,24,31,26593.537
2001,-609,72,42,26,33,26593.547
1978,-608,70,66,24,24,26593.557
1968,-610,88,107,-5,7,26593.566
1968,-598,94,149,-31,-3,26593.576
1948,-602,88,173,-47,-13,26593.586
1939,-599,95,198,-66,-28,26593.596
1938,-584,110,208,-79,-46,26593.605
1940,-574,95,218,-102,-55,26593.615
1945,-579,109,219,-92,-83,26593.625
1961,-579,104,202,-87,-102,26593.635
1962,-572,115,181,-80,-116,26593.645
1965,-581,121,161,-76,-136,26593.654
1968,-583,114,156,-66,-153,26593.664
1972,-593,122,146,-58,-176,26593.674
1971,-608,111,158,-40,-183,26593.684
1974,-607,114,168,-36,-192,26593.693
1983,-611,119,181,-32,-185,26593.703
1983,-600,99,189,-24,-187,26593.713
1981,-607,99,180,-19,-184,26593.723
1985,-594,107,176,-34,-174,26593.732
1981,-610,114,169,-29,-157,26593.742
1983,-609,109,161,-25,-146,26593.752
1987,-607,100,156,-26,-127,26593.762
1984,-620,102,163,-21,-120,26593.771
1991,-617,119,180,-23,-116,26593.781
1994,-620,103,211,-20,-102,26593.791
1990,-619,111,219,-23,-96,26593.801
2006,-618,109,235,-18,-101,26593.811
2009,-611,134,241,-16,-98,26593.82
2014,-612,115,238,-5,-87,26593.83
2010,-601,127,238,-3,-84,26593.84
2009,-605,123,217,3,-74,26593.85
2001,-605,117,206,-5,-70,26593.859
1992,-602,128,195,18,-51,26593.869
1995,-607,124,194,21,-45,26593.879
1988,-600,123,188,20,0,26593.889
1993,-594,134,176,32,10,26593.898
1990,-585,147,152,42,33,26593.908
1997,-583,146,125,62,56,26593.918
2002,-578,155,102,79,81,26593.928
1994,-575,140,72,97,106,26593.938
2000,-575,148,41,109,118,26593.947
2003,-578,127,13,125,132,26593.957
1995,-586,138,7,138,146,26594.01
1993,-579,143,9,147,165,26594.02
1993,-568,144,24,141,161,26594.029
1998,-579,121,26,141,164,26594.039
1994,-585,123,42,137,161,26594.049
1988,-581,126,51,141,162,26594.059
1973,-573,124,72,133,150,26594.068
1968,-577,123,98,128,139,26594.078
1971,-577,123,119,112,122,26594.088
1964,-571,119,132,112,122,26594.098
1943,-573,113,142,117,104,26594.107
1943,-568,129,151,116,94,26594.117
1934,-562,103,161,101,72,26594.127
1935,-565,105,166,91,56,26594.137
1934,-565,105,173,88,36,26594.146
1935,-562,105,182,75,22,26594.156
1943,-569,116,187,64,-3,26594.166
1939,-571,102,190,65,-22,26594.176
1947,-568,100,198,52,-35,26594.186
1953,-566,92,194,45,-54,26594.195
1961,-559,102,186,42,-61,26594.205
1970,-566,93,169,38,-67,26594.215
1977,-560,91,147,34,-74,26594.225
1980,-569,94,127,31,-73,26594.234
1986,-575,76,113,15,-69,26594.244
1983,-579,91,100,14,-67,26594.254
1986,-590,102,93,3,-61,26594.264
1984,-590,79,95,-10,-59,26594.273
1978,-593,90,109,-23,-53,26594.283
1978,-586,89,121,-29,-45,26594.293
1977,-588,100,128,-43,-45,26594.303
1964,-583,107,122,-60,-30,26594.313
1961,-582,87,120,-65,-13,26594.322
1972,-583,106,116,-76,-2,26594.332
1952,-574,122,116,-78,4,26594.342
1953,-568,105,112,-92,5,26594.352
1953,-572,108,96,-96,16,26594.361
1967,-569,104,92,-99,8,26594.371
1964,-571,119,87,-104,-5,26594.381
1961,-578,112,85,-108,-16,26594.391
1943,-569,138,94,-105,-25,26594.4
1939,-574,136,97,-115,-42,26594.41
1947,-572,140,105,-114,-55,26594.42
1943,-574,120,108,-118,-67,26594.43
1946,-575,112,121,-130,-77,26594.439
1954,-584,120,125,-129,-99,26594.449
1966,-579,120,136,-123,-93,26594.459
1957,-579,116,138,-124,-109,26594.469
1961,-593,125,138,-129,-106,26594.479
1961,-575,115,133,-134,-96,26594.488
1967,-588,115,125,-128,-98,26594.498
1963,-590,127,130,-132,-88,26594.508
1965,-582,112,125,-143,-83,26594.518
1972,-587,116,119,-134,-77,26594.527
1972,-590,115,122,-133,-78,26594.537
1979,-592,108,107,-130,-71,26594.547
1978,-596,110,108,-126,-63,26594.557
1986,-593,105,96,-135,-56,26594.566
2006,-595,113,80,-109,-43,26594.576
1996,-593,114,56,-97,-31,26594.586
2000,-594,107,29,-82,-18,26594.596
2006,-598,120,7,-64,-11,26594.605
2028,-604,115,-21,-59,24,26594.615
2056,-647,120,-38,-47,49,26594.625
2083,-676,110,0,-24,79,26594.635
2081,-671,122,57,-12,130,26594.645
2074,-671,129,95,-5,192,26594.654
2064,-700,162,234,-46,277,26594.664
2074,-771,134,384,-11,324,26594.674
2044,-783,155,611,0,407,26594.684
2029,-746,151,793,-20,428,26594.693
2017,-743,154,895,-18,490,26594.703
2023,-749,150,995,-2,514,26594.713
2018,-751,167,1038,19,555,26594.723
2003,-764,172,1029,45,602,26594.732
2015,-783,179,1027,51,679,26594.742
2023,-787,156,1003,97,781,26594.752
2005,-810,152,932,134,893,26594.762
2003,-859,198,833,182,992,26594.771
2003,-949,208,779,213,1106,26594.781
2021,-1016,267,789,253,1218,26594.791
2039,-1058,237,818,314,1339,26594.801
2040,-1063,256,827,359,1534,26594.811
2029,-1125,239,738,423,1764,26594.82
2048,-1204,256,588,484,2021,26594.83
2058,-1300,262,423,555,2282,26594.84
2074,-1500,237,305,623,2546,26594.85
2086,-1777,230,402,667,2859,26594.859
2110,-2101,269,740,714,3134,26594.869
2140,-2286,287,1313,796,3402,26594.879
2118,-2379,270,1925,871,3706,26594.889
